key_resp_8.keys,key_resp_8.rt,key_resp_9.keys,key_resp_9.rt,key_resp_10.keys,key_resp_10.rt,key_resp_11.keys,key_resp_11.rt,key_resp_2.keys,key_resp_2.rt,key_resp_3.keys,key_resp_3.rt,key_resp.keys,Feedback,train.thisRepN,train.thisTrialN,train.thisN,train.thisIndex,train.ran,torta_sx,torta_dx,difference,probability,age,gender,date,expName,psychopyVersion,OS,frameRate,participant,key_resp.rt,key_resp_15.keys,key_resp_15.rt,key_resp_6.keys,key_resp_6.rt,test1.thisRepN,test1.thisTrialN,test1.thisN,test1.thisIndex,test1.ran,key_resp_16.keys,key_resp_16.rt,key_resp_7.keys,key_resp_7.rt,test2.thisRepN,test2.thisTrialN,test2.thisN,test2.thisIndex,test2.ran,rating.response,rating.rt,mouse.x,mouse.y,mouse.leftButton,mouse.midButton,mouse.rightButton,mouse.clicked_name,mouse_2.x,mouse_2.y,mouse_2.leftButton,mouse_2.midButton,mouse_2.rightButton,mouse_2.clicked_name,mouse_3.x,mouse_3.y,mouse_3.leftButton,mouse_3.midButton,mouse_3.rightButton,mouse_3.clicked_name,key_resp_12.keys,key_resp_12.rt,key_resp_13.keys,key_resp_13.rt,key_resp_14.keys,key_resp_14.rt
space,37.06728,space,2.86348,space,0.216595,space,1.33062,space,14.750635,space,36.417015,,Too slow :(,0,0,0,9,1,t4.png,t5.png,1,0.9,28,Female,2020-10-21_21h17.55.853,torte-q,2020.1.3,MacIntel,60,14106,,,,,,,,,,,,,,,,,,,,,,,,,,,,,,,,,,,,,,,,,,,,,
,,,,,,,,,,,,l,Incorrect,0,1,1,60,1,t2.png,t4.png,2,0.059078,28,Female,2020-10-21_21h17.55.853,torte-q,2020.1.3,MacIntel,60,14106,1.650885,,,,,,,,,,,,,,,,,,,,,,,,,,,,,,,,,,,,,,,,,,,,
,,,,,,,,,,,,a,Incorrect,0,2,2,31,1,t1.png,t5.png,4,9.55E-11,28,Female,2020-10-21_21h17.55.853,torte-q,2020.1.3,MacIntel,60,14106,1.4343,,,,,,,,,,,,,,,,,,,,,,,,,,,,,,,,,,,,,,,,,,,,
,,,,,,,,,,,,a,Incorrect,0,3,3,86,1,t3.png,t1.png,2,0.056466,28,Female,2020-10-21_21h17.55.853,torte-q,2020.1.3,MacIntel,60,14106,0.60063,,,,,,,,,,,,,,,,,,,,,,,,,,,,,,,,,,,,,,,,,,,,
,,,,,,,,,,,,a,Incorrect,0,4,4,1,1,t2.png,t4.png,2,0.059078,28,Female,2020-10-21_21h17.55.853,torte-q,2020.1.3,MacIntel,60,14106,1.40094,,,,,,,,,,,,,,,,,,,,,,,,,,,,,,,,,,,,,,,,,,,,
,,,,,,,,,,,,a,Incorrect,0,5,5,6,1,t1.png,t4.png,3,0.0000131,28,Female,2020-10-21_21h17.55.853,torte-q,2020.1.3,MacIntel,60,14106,0.983495,,,,,,,,,,,,,,,,,,,,,,,,,,,,,,,,,,,,,,,,,,,,
,,,,,,,,,,,,a,Correct!,0,6,6,101,1,t4.png,t5.png,1,0.90025,28,Female,2020-10-21_21h17.55.853,torte-q,2020.1.3,MacIntel,60,14106,0.9291,,,,,,,,,,,,,,,,,,,,,,,,,,,,,,,,,,,,,,,,,,,,
,,,,,,,,,,,,a,Incorrect,0,7,7,47,1,t4.png,t2.png,2,0.059078,28,Female,2020-10-21_21h17.55.853,torte-q,2020.1.3,MacIntel,60,14106,0.834405,,,,,,,,,,,,,,,,,,,,,,,,,,,,,,,,,,,,,,,,,,,,
,,,,,,,,,,,,a,Incorrect,0,8,8,12,1,t5.png,t1.png,4,9.55E-11,28,Female,2020-10-21_21h17.55.853,torte-q,2020.1.3,MacIntel,60,14106,1.195965,,,,,,,,,,,,,,,,,,,,,,,,,,,,,,,,,,,,,,,,,,,,
,,,,,,,,,,,,l,Correct!,0,9,9,87,1,t5.png,t1.png,4,9.55E-11,28,Female,2020-10-21_21h17.55.853,torte-q,2020.1.3,MacIntel,60,14106,1.9794,,,,,,,,,,,,,,,,,,,,,,,,,,,,,,,,,,,,,,,,,,,,
,,,,,,,,,,,,l,Incorrect,0,10,10,39,1,t3.png,t2.png,1,0.90855,28,Female,2020-10-21_21h17.55.853,torte-q,2020.1.3,MacIntel,60,14106,1.68559,,,,,,,,,,,,,,,,,,,,,,,,,,,,,,,,,,,,,,,,,,,,
,,,,,,,,,,,,a,Incorrect,0,11,11,85,1,t3.png,t2.png,1,0.90855,28,Female,2020-10-21_21h17.55.853,torte-q,2020.1.3,MacIntel,60,14106,1.834115,,,,,,,,,,,,,,,,,,,,,,,,,,,,,,,,,,,,,,,,,,,,
,,,,,,,,,,,,l,Incorrect,0,12,12,18,1,t4.png,t5.png,1,0.90025,28,Female,2020-10-21_21h17.55.853,torte-q,2020.1.3,MacIntel,60,14106,1.500895,,,,,,,,,,,,,,,,,,,,,,,,,,,,,,,,,,,,,,,,,,,,
,,,,,,,,,,,,l,Incorrect,0,13,13,59,1,t5.png,t4.png,1,0.9,28,Female,2020-10-21_21h17.55.853,torte-q,2020.1.3,MacIntel,60,14106,1.579285,,,,,,,,,,,,,,,,,,,,,,,,,,,,,,,,,,,,,,,,,,,,
,,,,,,,,,,,,a,Incorrect,0,14,14,82,1,t5.png,t1.png,4,9.55E-11,28,Female,2020-10-21_21h17.55.853,torte-q,2020.1.3,MacIntel,60,14106,1.08499,,,,,,,,,,,,,,,,,,,,,,,,,,,,,,,,,,,,,,,,,,,,
,,,,,,,,,,,,l,Correct!,0,15,15,93,1,t2.png,t4.png,2,0.059078,28,Female,2020-10-21_21h17.55.853,torte-q,2020.1.3,MacIntel,60,14106,1.884295,,,,,,,,,,,,,,,,,,,,,,,,,,,,,,,,,,,,,,,,,,,,
,,,,,,,,,,,,a,Incorrect,0,16,16,69,1,t4.png,t2.png,2,0.059078,28,Female,2020-10-21_21h17.55.853,torte-q,2020.1.3,MacIntel,60,14106,1.69595,,,,,,,,,,,,,,,,,,,,,,,,,,,,,,,,,,,,,,,,,,,,
,,,,,,,,,,,,a,Incorrect,0,17,17,50,1,t5.png,t1.png,4,9.55E-11,28,Female,2020-10-21_21h17.55.853,torte-q,2020.1.3,MacIntel,60,14106,1.45052,,,,,,,,,,,,,,,,,,,,,,,,,,,,,,,,,,,,,,,,,,,,
,,,,,,,,,,,,l,Incorrect,0,18,18,75,1,t1.png,t1.png,0,0.97829,28,Female,2020-10-21_21h17.55.853,torte-q,2020.1.3,MacIntel,60,14106,1.88407,,,,,,,,,,,,,,,,,,,,,,,,,,,,,,,,,,,,,,,,,,,,
,,,,,,,,,,,,l,Correct!,0,19,19,36,1,t3.png,t1.png,2,0.0565,28,Female,2020-10-21_21h17.55.853,torte-q,2020.1.3,MacIntel,60,14106,2.16949,,,,,,,,,,,,,,,,,,,,,,,,,,,,,,,,,,,,,,,,,,,,
,,,,,,,,,,,,,Too slow :(,0,20,20,89,1,t1.png,t4.png,3,0.0000131,28,Female,2020-10-21_21h17.55.853,torte-q,2020.1.3,MacIntel,60,14106,,,,,,,,,,,,,,,,,,,,,,,,,,,,,,,,,,,,,,,,,,,,,
,,,,,,,,,,,,l,Incorrect,0,21,21,76,1,t3.png,t2.png,1,0.90855,28,Female,2020-10-21_21h17.55.853,torte-q,2020.1.3,MacIntel,60,14106,1.73647,,,,,,,,,,,,,,,,,,,,,,,,,,,,,,,,,,,,,,,,,,,,
,,,,,,,,,,,,l,Incorrect,0,22,22,100,1,t4.png,t5.png,1,0.90025,28,Female,2020-10-21_21h17.55.853,torte-q,2020.1.3,MacIntel,60,14106,2.11753,,,,,,,,,,,,,,,,,,,,,,,,,,,,,,,,,,,,,,,,,,,,
,,,,,,,,,,,,,Too slow :(,0,23,23,43,1,t4.png,t2.png,2,0.059078,28,Female,2020-10-21_21h17.55.853,torte-q,2020.1.3,MacIntel,60,14106,,,,,,,,,,,,,,,,,,,,,,,,,,,,,,,,,,,,,,,,,,,,,
,,,,,,,,,,,,a,Incorrect,0,24,24,35,1,t1.png,t4.png,3,0.0000131,28,Female,2020-10-21_21h17.55.853,torte-q,2020.1.3,MacIntel,60,14106,1.25088,,,,,,,,,,,,,,,,,,,,,,,,,,,,,,,,,,,,,,,,,,,,
,,,,,,,,,,,,l,Correct!,0,25,25,11,1,t1.png,t4.png,3,0.0000131,28,Female,2020-10-21_21h17.55.853,torte-q,2020.1.3,MacIntel,60,14106,2.38028,,,,,,,,,,,,,,,,,,,,,,,,,,,,,,,,,,,,,,,,,,,,
,,,,,,,,,,,,l,Incorrect,0,26,26,77,1,t1.png,t1.png,0,0.97829,28,Female,2020-10-21_21h17.55.853,torte-q,2020.1.3,MacIntel,60,14106,1.136075,,,,,,,,,,,,,,,,,,,,,,,,,,,,,,,,,,,,,,,,,,,,
,,,,,,,,,,,,a,Incorrect,0,27,27,0,1,t5.png,t1.png,4,9.55E-11,28,Female,2020-10-21_21h17.55.853,torte-q,2020.1.3,MacIntel,60,14106,1.73663,,,,,,,,,,,,,,,,,,,,,,,,,,,,,,,,,,,,,,,,,,,,
,,,,,,,,,,,,l,Correct!,0,28,28,44,1,t2.png,t3.png,1,0.909,28,Female,2020-10-21_21h17.55.853,torte-q,2020.1.3,MacIntel,60,14106,1.08429,,,,,,,,,,,,,,,,,,,,,,,,,,,,,,,,,,,,,,,,,,,,
,,,,,,,,,,,,a,Incorrect,0,29,29,38,1,t3.png,t1.png,2,0.056466,28,Female,2020-10-21_21h17.55.853,torte-q,2020.1.3,MacIntel,60,14106,1.60192,,,,,,,,,,,,,,,,,,,,,,,,,,,,,,,,,,,,,,,,,,,,
,,,,,,,,,,,,a,Correct!,0,30,30,95,1,t1.png,t1.png,0,0.978,28,Female,2020-10-21_21h17.55.853,torte-q,2020.1.3,MacIntel,60,14106,1.1674,,,,,,,,,,,,,,,,,,,,,,,,,,,,,,,,,,,,,,,,,,,,
,,,,,,,,,,,,l,Incorrect,0,31,31,116,1,t5.png,t4.png,1,0.90025,28,Female,2020-10-21_21h17.55.853,torte-q,2020.1.3,MacIntel,60,14106,1.46233,,,,,,,,,,,,,,,,,,,,,,,,,,,,,,,,,,,,,,,,,,,,
,,,,,,,,,,,,l,Incorrect,0,32,32,70,1,t5.png,t5.png,0,0.978,28,Female,2020-10-21_21h17.55.853,torte-q,2020.1.3,MacIntel,60,14106,1.21385,,,,,,,,,,,,,,,,,,,,,,,,,,,,,,,,,,,,,,,,,,,,
,,,,,,,,,,,,a,Correct!,0,33,33,13,1,t5.png,t5.png,0,0.97829,28,Female,2020-10-21_21h17.55.853,torte-q,2020.1.3,MacIntel,60,14106,0.849625,,,,,,,,,,,,,,,,,,,,,,,,,,,,,,,,,,,,,,,,,,,,
,,,,,,,,,,,,l,Incorrect,0,34,34,58,1,t5.png,t4.png,1,0.90025,28,Female,2020-10-21_21h17.55.853,torte-q,2020.1.3,MacIntel,60,14106,1.07996,,,,,,,,,,,,,,,,,,,,,,,,,,,,,,,,,,,,,,,,,,,,
,,,,,,,,,,,,,Too slow :(,0,35,35,10,1,t2.png,t3.png,1,0.90855,28,Female,2020-10-21_21h17.55.853,torte-q,2020.1.3,MacIntel,60,14106,,,,,,,,,,,,,,,,,,,,,,,,,,,,,,,,,,,,,,,,,,,,,
,,,,,,,,,,,,l,Correct!,0,36,36,27,1,t3.png,t1.png,2,0.0565,28,Female,2020-10-21_21h17.55.853,torte-q,2020.1.3,MacIntel,60,14106,0.884525,,,,,,,,,,,,,,,,,,,,,,,,,,,,,,,,,,,,,,,,,,,,
,,,,,,,,,,,,l,Correct!,0,37,37,30,1,t3.png,t1.png,2,0.056466,28,Female,2020-10-21_21h17.55.853,torte-q,2020.1.3,MacIntel,60,14106,1.045595,,,,,,,,,,,,,,,,,,,,,,,,,,,,,,,,,,,,,,,,,,,,
,,,,,,,,,,,,l,Correct!,0,38,38,37,1,t1.png,t4.png,3,0.0000131,28,Female,2020-10-21_21h17.55.853,torte-q,2020.1.3,MacIntel,60,14106,1.98415,,,,,,,,,,,,,,,,,,,,,,,,,,,,,,,,,,,,,,,,,,,,
,,,,,,,,,,,,a,Incorrect,0,39,39,54,1,t1.png,t5.png,4,9.55E-11,28,Female,2020-10-21_21h17.55.853,torte-q,2020.1.3,MacIntel,60,14106,1.301105,,,,,,,,,,,,,,,,,,,,,,,,,,,,,,,,,,,,,,,,,,,,
,,,,,,,,,,,,a,Correct!,0,40,40,34,1,t5.png,t4.png,1,0.9,28,Female,2020-10-21_21h17.55.853,torte-q,2020.1.3,MacIntel,60,14106,1.436425,,,,,,,,,,,,,,,,,,,,,,,,,,,,,,,,,,,,,,,,,,,,
,,,,,,,,,,,,l,Correct!,0,41,41,40,1,t1.png,t5.png,4,9.55E-11,28,Female,2020-10-21_21h17.55.853,torte-q,2020.1.3,MacIntel,60,14106,1.75066,,,,,,,,,,,,,,,,,,,,,,,,,,,,,,,,,,,,,,,,,,,,
,,,,,,,,,,,,l,Incorrect,0,42,42,96,1,t1.png,t1.png,0,0.97829,28,Female,2020-10-21_21h17.55.853,torte-q,2020.1.3,MacIntel,60,14106,2.0855,,,,,,,,,,,,,,,,,,,,,,,,,,,,,,,,,,,,,,,,,,,,
,,,,,,,,,,,,l,Correct!,0,43,43,90,1,t1.png,t5.png,4,9.55E-11,28,Female,2020-10-21_21h17.55.853,torte-q,2020.1.3,MacIntel,60,14106,2.096135,,,,,,,,,,,,,,,,,,,,,,,,,,,,,,,,,,,,,,,,,,,,
,,,,,,,,,,,,a,Correct!,0,44,44,113,1,t5.png,t4.png,1,0.9,28,Female,2020-10-21_21h17.55.853,torte-q,2020.1.3,MacIntel,60,14106,1.382505,,,,,,,,,,,,,,,,,,,,,,,,,,,,,,,,,,,,,,,,,,,,
,,,,,,,,,,,,l,Correct!,0,45,45,88,1,t3.png,t1.png,2,0.056466,28,Female,2020-10-21_21h17.55.853,torte-q,2020.1.3,MacIntel,60,14106,1.45162,,,,,,,,,,,,,,,,,,,,,,,,,,,,,,,,,,,,,,,,,,,,
,,,,,,,,,,,,a,Incorrect,0,46,46,17,1,t1.png,t4.png,3,0.0000131,28,Female,2020-10-21_21h17.55.853,torte-q,2020.1.3,MacIntel,60,14106,2.11534,,,,,,,,,,,,,,,,,,,,,,,,,,,,,,,,,,,,,,,,,,,,
,,,,,,,,,,,,a,Correct!,0,47,47,20,1,t2.png,t3.png,1,0.90855,28,Female,2020-10-21_21h17.55.853,torte-q,2020.1.3,MacIntel,60,14106,1.266315,,,,,,,,,,,,,,,,,,,,,,,,,,,,,,,,,,,,,,,,,,,,
,,,,,,,,,,,,l,Incorrect,0,48,48,48,1,t5.png,t5.png,0,0.97829,28,Female,2020-10-21_21h17.55.853,torte-q,2020.1.3,MacIntel,60,14106,0.802455,,,,,,,,,,,,,,,,,,,,,,,,,,,,,,,,,,,,,,,,,,,,
,,,,,,,,,,,,a,Correct!,0,49,49,22,1,t2.png,t3.png,1,0.90855,28,Female,2020-10-21_21h17.55.853,torte-q,2020.1.3,MacIntel,60,14106,1.11723,,,,,,,,,,,,,,,,,,,,,,,,,,,,,,,,,,,,,,,,,,,,
,,,,,,,,,,,,a,Correct!,0,50,50,104,1,t2.png,t3.png,1,0.90855,28,Female,2020-10-21_21h17.55.853,torte-q,2020.1.3,MacIntel,60,14106,1.11745,,,,,,,,,,,,,,,,,,,,,,,,,,,,,,,,,,,,,,,,,,,,
,,,,,,,,,,,,l,Incorrect,0,51,51,109,1,t5.png,t5.png,0,0.97829,28,Female,2020-10-21_21h17.55.853,torte-q,2020.1.3,MacIntel,60,14106,1.618725,,,,,,,,,,,,,,,,,,,,,,,,,,,,,,,,,,,,,,,,,,,,
,,,,,,,,,,,,l,Correct!,0,52,52,51,1,t3.png,t1.png,2,0.056466,28,Female,2020-10-21_21h17.55.853,torte-q,2020.1.3,MacIntel,60,14106,1.32951,,,,,,,,,,,,,,,,,,,,,,,,,,,,,,,,,,,,,,,,,,,,
,,,,,,,,,,,,l,Incorrect,0,53,53,118,1,t5.png,t5.png,0,0.978,28,Female,2020-10-21_21h17.55.853,torte-q,2020.1.3,MacIntel,60,14106,0.850865,,,,,,,,,,,,,,,,,,,,,,,,,,,,,,,,,,,,,,,,,,,,
,,,,,,,,,,,,l,Correct!,0,54,54,33,1,t5.png,t1.png,4,9.55E-11,28,Female,2020-10-21_21h17.55.853,torte-q,2020.1.3,MacIntel,60,14106,1.932285,,,,,,,,,,,,,,,,,,,,,,,,,,,,,,,,,,,,,,,,,,,,
,,,,,,,,,,,,a,Incorrect,0,55,55,61,1,t1.png,t4.png,3,0.0000131,28,Female,2020-10-21_21h17.55.853,torte-q,2020.1.3,MacIntel,60,14106,2.050795,,,,,,,,,,,,,,,,,,,,,,,,,,,,,,,,,,,,,,,,,,,,
,,,,,,,,,,,,l,Correct!,0,56,56,91,1,t1.png,t4.png,3,0.0000131,28,Female,2020-10-21_21h17.55.853,torte-q,2020.1.3,MacIntel,60,14106,0.78424,,,,,,,,,,,,,,,,,,,,,,,,,,,,,,,,,,,,,,,,,,,,
,,,,,,,,,,,,a,Incorrect,0,57,57,7,1,t4.png,t5.png,1,0.90025,28,Female,2020-10-21_21h17.55.853,torte-q,2020.1.3,MacIntel,60,14106,1.017165,,,,,,,,,,,,,,,,,,,,,,,,,,,,,,,,,,,,,,,,,,,,
,,,,,,,,,,,,l,Correct!,0,58,58,80,1,t1.png,t4.png,3,0.0000131,28,Female,2020-10-21_21h17.55.853,torte-q,2020.1.3,MacIntel,60,14106,1.05082,,,,,,,,,,,,,,,,,,,,,,,,,,,,,,,,,,,,,,,,,,,,
,,,,,,,,,,,,l,Correct!,0,59,59,102,1,t4.png,t2.png,2,0.059078,28,Female,2020-10-21_21h17.55.853,torte-q,2020.1.3,MacIntel,60,14106,1.73412,,,,,,,,,,,,,,,,,,,,,,,,,,,,,,,,,,,,,,,,,,,,
,,,,,,,,,,,,l,Incorrect,0,60,60,46,1,t4.png,t2.png,2,0.059078,28,Female,2020-10-21_21h17.55.853,torte-q,2020.1.3,MacIntel,60,14106,1.317365,,,,,,,,,,,,,,,,,,,,,,,,,,,,,,,,,,,,,,,,,,,,
,,,,,,,,,,,,l,Correct!,0,61,61,68,1,t1.png,t4.png,3,0.0000131,28,Female,2020-10-21_21h17.55.853,torte-q,2020.1.3,MacIntel,60,14106,1.667535,,,,,,,,,,,,,,,,,,,,,,,,,,,,,,,,,,,,,,,,,,,,
,,,,,,,,,,,,a,Correct!,0,62,62,81,1,t1.png,t1.png,0,0.97829,28,Female,2020-10-21_21h17.55.853,torte-q,2020.1.3,MacIntel,60,14106,1.883935,,,,,,,,,,,,,,,,,,,,,,,,,,,,,,,,,,,,,,,,,,,,
,,,,,,,,,,,,l,Incorrect,0,63,63,63,1,t2.png,t3.png,1,0.909,28,Female,2020-10-21_21h17.55.853,torte-q,2020.1.3,MacIntel,60,14106,1.717455,,,,,,,,,,,,,,,,,,,,,,,,,,,,,,,,,,,,,,,,,,,,
,,,,,,,,,,,,a,Incorrect,0,64,64,117,1,t1.png,t5.png,4,9.55E-11,28,Female,2020-10-21_21h17.55.853,torte-q,2020.1.3,MacIntel,60,14106,1.333925,,,,,,,,,,,,,,,,,,,,,,,,,,,,,,,,,,,,,,,,,,,,
,,,,,,,,,,,,a,Correct!,0,65,65,110,1,t4.png,t5.png,1,0.90025,28,Female,2020-10-21_21h17.55.853,torte-q,2020.1.3,MacIntel,60,14106,1.251735,,,,,,,,,,,,,,,,,,,,,,,,,,,,,,,,,,,,,,,,,,,,
,,,,,,,,,,,,l,Correct!,0,66,66,83,1,t3.png,t1.png,2,0.056466,28,Female,2020-10-21_21h17.55.853,torte-q,2020.1.3,MacIntel,60,14106,1.27933,,,,,,,,,,,,,,,,,,,,,,,,,,,,,,,,,,,,,,,,,,,,
,,,,,,,,,,,,a,Incorrect,0,67,67,4,1,t1.png,t5.png,4,9.55E-11,28,Female,2020-10-21_21h17.55.853,torte-q,2020.1.3,MacIntel,60,14106,0.945525,,,,,,,,,,,,,,,,,,,,,,,,,,,,,,,,,,,,,,,,,,,,
,,,,,,,,,,,,a,Correct!,0,68,68,107,1,t1.png,t1.png,0,0.978,28,Female,2020-10-21_21h17.55.853,torte-q,2020.1.3,MacIntel,60,14106,1.701115,,,,,,,,,,,,,,,,,,,,,,,,,,,,,,,,,,,,,,,,,,,,
,,,,,,,,,,,,l,Correct!,0,69,69,99,1,t1.png,t5.png,4,9.55E-11,28,Female,2020-10-21_21h17.55.853,torte-q,2020.1.3,MacIntel,60,14106,1.06252,,,,,,,,,,,,,,,,,,,,,,,,,,,,,,,,,,,,,,,,,,,,
,,,,,,,,,,,,l,Correct!,0,70,70,67,1,t1.png,t5.png,4,9.55E-11,28,Female,2020-10-21_21h17.55.853,torte-q,2020.1.3,MacIntel,60,14106,0.66476,,,,,,,,,,,,,,,,,,,,,,,,,,,,,,,,,,,,,,,,,,,,
,,,,,,,,,,,,a,Correct!,0,71,71,23,1,t5.png,t4.png,1,0.90025,28,Female,2020-10-21_21h17.55.853,torte-q,2020.1.3,MacIntel,60,14106,1.417465,,,,,,,,,,,,,,,,,,,,,,,,,,,,,,,,,,,,,,,,,,,,
,,,,,,,,,,,,a,Incorrect,0,72,72,72,1,t4.png,t2.png,2,0.059078,28,Female,2020-10-21_21h17.55.853,torte-q,2020.1.3,MacIntel,60,14106,2.251005,,,,,,,,,,,,,,,,,,,,,,,,,,,,,,,,,,,,,,,,,,,,
,,,,,,,,,,,,l,Correct!,0,73,73,73,1,t4.png,t2.png,2,0.059078,28,Female,2020-10-21_21h17.55.853,torte-q,2020.1.3,MacIntel,60,14106,0.700975,,,,,,,,,,,,,,,,,,,,,,,,,,,,,,,,,,,,,,,,,,,,
,,,,,,,,,,,,a,Correct!,0,74,74,64,1,t1.png,t1.png,0,0.978,28,Female,2020-10-21_21h17.55.853,torte-q,2020.1.3,MacIntel,60,14106,1.62048,,,,,,,,,,,,,,,,,,,,,,,,,,,,,,,,,,,,,,,,,,,,
,,,,,,,,,,,,l,Correct!,0,75,75,19,1,t4.png,t2.png,2,0.059078,28,Female,2020-10-21_21h17.55.853,torte-q,2020.1.3,MacIntel,60,14106,1.07971,,,,,,,,,,,,,,,,,,,,,,,,,,,,,,,,,,,,,,,,,,,,
,,,,,,,,,,,,a,Correct!,0,76,76,105,1,t3.png,t2.png,1,0.90855,28,Female,2020-10-21_21h17.55.853,torte-q,2020.1.3,MacIntel,60,14106,1.16922,,,,,,,,,,,,,,,,,,,,,,,,,,,,,,,,,,,,,,,,,,,,
,,,,,,,,,,,,a,Correct!,0,77,77,41,1,t3.png,t2.png,1,0.90855,28,Female,2020-10-21_21h17.55.853,torte-q,2020.1.3,MacIntel,60,14106,0.95076,,,,,,,,,,,,,,,,,,,,,,,,,,,,,,,,,,,,,,,,,,,,
,,,,,,,,,,,,a,Correct!,0,78,78,62,1,t5.png,t5.png,0,0.978,28,Female,2020-10-21_21h17.55.853,torte-q,2020.1.3,MacIntel,60,14106,1.16743,,,,,,,,,,,,,,,,,,,,,,,,,,,,,,,,,,,,,,,,,,,,
,,,,,,,,,,,,a,Correct!,0,79,79,32,1,t4.png,t5.png,1,0.90025,28,Female,2020-10-21_21h17.55.853,torte-q,2020.1.3,MacIntel,60,14106,1.98123,,,,,,,,,,,,,,,,,,,,,,,,,,,,,,,,,,,,,,,,,,,,
,,,,,,,,,,,,a,Correct!,0,80,80,78,1,t1.png,t1.png,0,0.978,28,Female,2020-10-21_21h17.55.853,torte-q,2020.1.3,MacIntel,60,14106,0.94608,,,,,,,,,,,,,,,,,,,,,,,,,,,,,,,,,,,,,,,,,,,,
,,,,,,,,,,,,l,Correct!,0,81,81,56,1,t5.png,t1.png,4,9.55E-11,28,Female,2020-10-21_21h17.55.853,torte-q,2020.1.3,MacIntel,60,14106,0.94633,,,,,,,,,,,,,,,,,,,,,,,,,,,,,,,,,,,,,,,,,,,,
,,,,,,,,,,,,l,Correct!,0,82,82,94,1,t5.png,t1.png,4,9.55E-11,28,Female,2020-10-21_21h17.55.853,torte-q,2020.1.3,MacIntel,60,14106,0.718705,,,,,,,,,,,,,,,,,,,,,,,,,,,,,,,,,,,,,,,,,,,,
,,,,,,,,,,,,l,Correct!,0,83,83,3,1,t1.png,t5.png,4,9.55E-11,28,Female,2020-10-21_21h17.55.853,torte-q,2020.1.3,MacIntel,60,14106,1.10086,,,,,,,,,,,,,,,,,,,,,,,,,,,,,,,,,,,,,,,,,,,,
,,,,,,,,,,,,l,Correct!,0,84,84,14,1,t2.png,t4.png,2,0.059078,28,Female,2020-10-21_21h17.55.853,torte-q,2020.1.3,MacIntel,60,14106,0.933545,,,,,,,,,,,,,,,,,,,,,,,,,,,,,,,,,,,,,,,,,,,,
,,,,,,,,,,,,a,Incorrect,0,85,85,53,1,t3.png,t1.png,2,0.056466,28,Female,2020-10-21_21h17.55.853,torte-q,2020.1.3,MacIntel,60,14106,1.06343,,,,,,,,,,,,,,,,,,,,,,,,,,,,,,,,,,,,,,,,,,,,
,,,,,,,,,,,,l,Correct!,0,86,86,24,1,t4.png,t2.png,2,0.059078,28,Female,2020-10-21_21h17.55.853,torte-q,2020.1.3,MacIntel,60,14106,1.567465,,,,,,,,,,,,,,,,,,,,,,,,,,,,,,,,,,,,,,,,,,,,
,,,,,,,,,,,,a,Correct!,0,87,87,84,1,t1.png,t1.png,0,0.97829,28,Female,2020-10-21_21h17.55.853,torte-q,2020.1.3,MacIntel,60,14106,0.917435,,,,,,,,,,,,,,,,,,,,,,,,,,,,,,,,,,,,,,,,,,,,
,,,,,,,,,,,,l,Correct!,0,88,88,108,1,t5.png,t1.png,4,9.55E-11,28,Female,2020-10-21_21h17.55.853,torte-q,2020.1.3,MacIntel,60,14106,1.312405,,,,,,,,,,,,,,,,,,,,,,,,,,,,,,,,,,,,,,,,,,,,
,,,,,,,,,,,,a,Correct!,0,89,89,66,1,t4.png,t5.png,1,0.9,28,Female,2020-10-21_21h17.55.853,torte-q,2020.1.3,MacIntel,60,14106,1.362855,,,,,,,,,,,,,,,,,,,,,,,,,,,,,,,,,,,,,,,,,,,,
,,,,,,,,,,,,a,Correct!,0,90,90,21,1,t5.png,t4.png,1,0.90025,28,Female,2020-10-21_21h17.55.853,torte-q,2020.1.3,MacIntel,60,14106,1.81235,,,,,,,,,,,,,,,,,,,,,,,,,,,,,,,,,,,,,,,,,,,,
,,,,,,,,,,,,l,Correct!,0,91,91,57,1,t2.png,t4.png,2,0.059078,28,Female,2020-10-21_21h17.55.853,torte-q,2020.1.3,MacIntel,60,14106,1.300605,,,,,,,,,,,,,,,,,,,,,,,,,,,,,,,,,,,,,,,,,,,,
,,,,,,,,,,,,l,Correct!,0,92,92,111,1,t5.png,t1.png,4,9.55E-11,28,Female,2020-10-21_21h17.55.853,torte-q,2020.1.3,MacIntel,60,14106,0.71371,,,,,,,,,,,,,,,,,,,,,,,,,,,,,,,,,,,,,,,,,,,,
,,,,,,,,,,,,a,Correct!,0,93,93,29,1,t5.png,t5.png,0,0.97829,28,Female,2020-10-21_21h17.55.853,torte-q,2020.1.3,MacIntel,60,14106,1.30064,,,,,,,,,,,,,,,,,,,,,,,,,,,,,,,,,,,,,,,,,,,,
,,,,,,,,,,,,l,Correct!,0,94,94,119,1,t1.png,t5.png,4,9.55E-11,28,Female,2020-10-21_21h17.55.853,torte-q,2020.1.3,MacIntel,60,14106,0.68038,,,,,,,,,,,,,,,,,,,,,,,,,,,,,,,,,,,,,,,,,,,,
,,,,,,,,,,,,l,Correct!,0,95,95,55,1,t2.png,t4.png,2,0.059078,28,Female,2020-10-21_21h17.55.853,torte-q,2020.1.3,MacIntel,60,14106,1.18395,,,,,,,,,,,,,,,,,,,,,,,,,,,,,,,,,,,,,,,,,,,,
,,,,,,,,,,,,a,Correct!,0,96,96,97,1,t5.png,t5.png,0,0.97829,28,Female,2020-10-21_21h17.55.853,torte-q,2020.1.3,MacIntel,60,14106,0.934245,,,,,,,,,,,,,,,,,,,,,,,,,,,,,,,,,,,,,,,,,,,,
,,,,,,,,,,,,a,Incorrect,0,97,97,103,1,t3.png,t1.png,2,0.056466,28,Female,2020-10-21_21h17.55.853,torte-q,2020.1.3,MacIntel,60,14106,1.05253,,,,,,,,,,,,,,,,,,,,,,,,,,,,,,,,,,,,,,,,,,,,
,,,,,,,,,,,,a,Correct!,0,98,98,71,1,t5.png,t5.png,0,0.97829,28,Female,2020-10-21_21h17.55.853,torte-q,2020.1.3,MacIntel,60,14106,1.849985,,,,,,,,,,,,,,,,,,,,,,,,,,,,,,,,,,,,,,,,,,,,
,,,,,,,,,,,,a,Correct!,0,99,99,65,1,t4.png,t5.png,1,0.90025,28,Female,2020-10-21_21h17.55.853,torte-q,2020.1.3,MacIntel,60,14106,1.95099,,,,,,,,,,,,,,,,,,,,,,,,,,,,,,,,,,,,,,,,,,,,
,,,,,,,,,,,,a,Correct!,0,100,100,112,1,t1.png,t1.png,0,0.97829,28,Female,2020-10-21_21h17.55.853,torte-q,2020.1.3,MacIntel,60,14106,1.41725,,,,,,,,,,,,,,,,,,,,,,,,,,,,,,,,,,,,,,,,,,,,
,,,,,,,,,,,,a,Correct!,0,101,101,79,1,t3.png,t2.png,1,0.909,28,Female,2020-10-21_21h17.55.853,torte-q,2020.1.3,MacIntel,60,14106,1.18788,,,,,,,,,,,,,,,,,,,,,,,,,,,,,,,,,,,,,,,,,,,,
,,,,,,,,,,,,l,Correct!,0,102,102,28,1,t2.png,t3.png,1,0.909,28,Female,2020-10-21_21h17.55.853,torte-q,2020.1.3,MacIntel,60,14106,1.603835,,,,,,,,,,,,,,,,,,,,,,,,,,,,,,,,,,,,,,,,,,,,
,,,,,,,,,,,,a,Correct!,0,103,103,25,1,t5.png,t5.png,0,0.97829,28,Female,2020-10-21_21h17.55.853,torte-q,2020.1.3,MacIntel,60,14106,0.850315,,,,,,,,,,,,,,,,,,,,,,,,,,,,,,,,,,,,,,,,,,,,
,,,,,,,,,,,,l,Correct!,0,104,104,26,1,t4.png,t2.png,2,0.0591,28,Female,2020-10-21_21h17.55.853,torte-q,2020.1.3,MacIntel,60,14106,1.466945,,,,,,,,,,,,,,,,,,,,,,,,,,,,,,,,,,,,,,,,,,,,
,,,,,,,,,,,,a,Correct!,0,105,105,42,1,t5.png,t4.png,1,0.90025,28,Female,2020-10-21_21h17.55.853,torte-q,2020.1.3,MacIntel,60,14106,1.817535,,,,,,,,,,,,,,,,,,,,,,,,,,,,,,,,,,,,,,,,,,,,
,,,,,,,,,,,,a,Correct!,0,106,106,45,1,t3.png,t2.png,1,0.90855,28,Female,2020-10-21_21h17.55.853,torte-q,2020.1.3,MacIntel,60,14106,0.75102,,,,,,,,,,,,,,,,,,,,,,,,,,,,,,,,,,,,,,,,,,,,
,,,,,,,,,,,,a,Correct!,0,107,107,15,1,t3.png,t2.png,1,0.90855,28,Female,2020-10-21_21h17.55.853,torte-q,2020.1.3,MacIntel,60,14106,1.062915,,,,,,,,,,,,,,,,,,,,,,,,,,,,,,,,,,,,,,,,,,,,
,,,,,,,,,,,,l,Correct!,0,108,108,5,1,t2.png,t4.png,2,0.059078,28,Female,2020-10-21_21h17.55.853,torte-q,2020.1.3,MacIntel,60,14106,1.112765,,,,,,,,,,,,,,,,,,,,,,,,,,,,,,,,,,,,,,,,,,,,
,,,,,,,,,,,,a,Correct!,0,109,109,8,1,t3.png,t2.png,1,0.90855,28,Female,2020-10-21_21h17.55.853,torte-q,2020.1.3,MacIntel,60,14106,0.683265,,,,,,,,,,,,,,,,,,,,,,,,,,,,,,,,,,,,,,,,,,,,
,,,,,,,,,,,,l,Correct!,0,110,110,52,1,t2.png,t4.png,2,0.059078,28,Female,2020-10-21_21h17.55.853,torte-q,2020.1.3,MacIntel,60,14106,0.90075,,,,,,,,,,,,,,,,,,,,,,,,,,,,,,,,,,,,,,,,,,,,
,,,,,,,,,,,,a,Incorrect,0,111,111,16,1,t5.png,t4.png,1,0.9,28,Female,2020-10-21_21h17.55.853,torte-q,2020.1.3,MacIntel,60,14106,1.86768,,,,,,,,,,,,,,,,,,,,,,,,,,,,,,,,,,,,,,,,,,,,
,,,,,,,,,,,,a,Correct!,0,112,112,49,1,t4.png,t5.png,1,0.9,28,Female,2020-10-21_21h17.55.853,torte-q,2020.1.3,MacIntel,60,14106,2.384345,,,,,,,,,,,,,,,,,,,,,,,,,,,,,,,,,,,,,,,,,,,,
,,,,,,,,,,,,a,Incorrect,0,113,113,2,1,t3.png,t2.png,1,0.90855,28,Female,2020-10-21_21h17.55.853,torte-q,2020.1.3,MacIntel,60,14106,1.403645,,,,,,,,,,,,,,,,,,,,,,,,,,,,,,,,,,,,,,,,,,,,
,,,,,,,,,,,,,Too slow :(,0,114,114,74,1,t5.png,t4.png,1,0.9,28,Female,2020-10-21_21h17.55.853,torte-q,2020.1.3,MacIntel,60,14106,,,,,,,,,,,,,,,,,,,,,,,,,,,,,,,,,,,,,,,,,,,,,
,,,,,,,,,,,,l,Incorrect,0,115,115,106,1,t2.png,t3.png,1,0.90855,28,Female,2020-10-21_21h17.55.853,torte-q,2020.1.3,MacIntel,60,14106,1.018345,,,,,,,,,,,,,,,,,,,,,,,,,,,,,,,,,,,,,,,,,,,,
,,,,,,,,,,,,l,Correct!,0,116,116,115,1,t2.png,t4.png,2,0.059078,28,Female,2020-10-21_21h17.55.853,torte-q,2020.1.3,MacIntel,60,14106,1.46754,,,,,,,,,,,,,,,,,,,,,,,,,,,,,,,,,,,,,,,,,,,,
,,,,,,,,,,,,l,Correct!,0,117,117,98,1,t2.png,t4.png,2,0.0591,28,Female,2020-10-21_21h17.55.853,torte-q,2020.1.3,MacIntel,60,14106,0.713275,,,,,,,,,,,,,,,,,,,,,,,,,,,,,,,,,,,,,,,,,,,,
,,,,,,,,,,,,l,Incorrect,0,118,118,114,1,t2.png,t3.png,1,0.90855,28,Female,2020-10-21_21h17.55.853,torte-q,2020.1.3,MacIntel,60,14106,0.68405,,,,,,,,,,,,,,,,,,,,,,,,,,,,,,,,,,,,,,,,,,,,
,,,,,,,,,,,,a,Correct!,0,119,119,92,1,t2.png,t3.png,1,0.909,28,Female,2020-10-21_21h17.55.853,torte-q,2020.1.3,MacIntel,60,14106,0.83408,,,,,,,,,,,,,,,,,,,,,,,,,,,,,,,,,,,,,,,,,,,,
,,,,,,,,,,,,,Too slow :(,,,,,,t2.png,t5.png,3,0.0000131,28,Female,2020-10-21_21h17.55.853,torte-q,2020.1.3,MacIntel,60,14106,,space,1.76518,space,2.153115,0,0,0,95,1,,,,,,,,,,,,,,,,,,,,,,,,,,,,,,,,,,,
,,,,,,,,,,,,,Too slow :(,,,,,,t2.png,t5.png,3,0.0000131,28,Female,2020-10-21_21h17.55.853,torte-q,2020.1.3,MacIntel,60,14106,,,,,,0,1,1,104,1,,,,,,,,,,,,,,,,,,,,,,,,,,,,,,,,,,,
,,,,,,,,,,,,a,Correct!,,,,,,t1.png,t1.png,0,0.97829,28,Female,2020-10-21_21h17.55.853,torte-q,2020.1.3,MacIntel,60,14106,0.734185,,,,,0,2,2,78,1,,,,,,,,,,,,,,,,,,,,,,,,,,,,,,,,,,,
,,,,,,,,,,,,a,Correct!,,,,,,t3.png,t2.png,1,0.90855,28,Female,2020-10-21_21h17.55.853,torte-q,2020.1.3,MacIntel,60,14106,1.48518,,,,,0,3,3,97,1,,,,,,,,,,,,,,,,,,,,,,,,,,,,,,,,,,,
,,,,,,,,,,,,a,Correct!,,,,,,t5.png,t5.png,0,0.978,28,Female,2020-10-21_21h17.55.853,torte-q,2020.1.3,MacIntel,60,14106,0.833855,,,,,0,4,4,117,1,,,,,,,,,,,,,,,,,,,,,,,,,,,,,,,,,,,
,,,,,,,,,,,,a,Correct!,,,,,,t3.png,t4.png,1,0.90855,28,Female,2020-10-21_21h17.55.853,torte-q,2020.1.3,MacIntel,60,14106,1.41935,,,,,0,5,5,84,1,,,,,,,,,,,,,,,,,,,,,,,,,,,,,,,,,,,
,,,,,,,,,,,,l,Incorrect,,,,,,t5.png,t4.png,1,0.9,28,Female,2020-10-21_21h17.55.853,torte-q,2020.1.3,MacIntel,60,14106,2.400555,,,,,0,6,6,49,1,,,,,,,,,,,,,,,,,,,,,,,,,,,,,,,,,,,
,,,,,,,,,,,,a,Correct!,,,,,,t4.png,t5.png,1,0.90025,28,Female,2020-10-21_21h17.55.853,torte-q,2020.1.3,MacIntel,60,14106,1.885065,,,,,0,7,7,58,1,,,,,,,,,,,,,,,,,,,,,,,,,,,,,,,,,,,
,,,,,,,,,,,,l,Correct!,,,,,,t5.png,t1.png,4,9.55E-11,28,Female,2020-10-21_21h17.55.853,torte-q,2020.1.3,MacIntel,60,14106,1.05051,,,,,0,8,8,102,1,,,,,,,,,,,,,,,,,,,,,,,,,,,,,,,,,,,
,,,,,,,,,,,,a,Correct!,,,,,,t1.png,t2.png,1,0.90025,28,Female,2020-10-21_21h17.55.853,torte-q,2020.1.3,MacIntel,60,14106,2.04091,,,,,0,9,9,112,1,,,,,,,,,,,,,,,,,,,,,,,,,,,,,,,,,,,
,,,,,,,,,,,,l,Incorrect,,,,,,t4.png,t3.png,1,0.909,28,Female,2020-10-21_21h17.55.853,torte-q,2020.1.3,MacIntel,60,14106,1.834,,,,,0,10,10,20,1,,,,,,,,,,,,,,,,,,,,,,,,,,,,,,,,,,,
,,,,,,,,,,,,a,Correct!,,,,,,t5.png,t5.png,0,0.97829,28,Female,2020-10-21_21h17.55.853,torte-q,2020.1.3,MacIntel,60,14106,1.39103,,,,,0,11,11,25,1,,,,,,,,,,,,,,,,,,,,,,,,,,,,,,,,,,,
,,,,,,,,,,,,a,Correct!,,,,,,t2.png,t2.png,0,0.98115,28,Female,2020-10-21_21h17.55.853,torte-q,2020.1.3,MacIntel,60,14106,1.163425,,,,,0,12,12,59,1,,,,,,,,,,,,,,,,,,,,,,,,,,,,,,,,,,,
,,,,,,,,,,,,l,Correct!,,,,,,t1.png,t5.png,4,9.55E-11,28,Female,2020-10-21_21h17.55.853,torte-q,2020.1.3,MacIntel,60,14106,1.03658,,,,,0,13,13,55,1,,,,,,,,,,,,,,,,,,,,,,,,,,,,,,,,,,,
,,,,,,,,,,,,a,Correct!,,,,,,t1.png,t2.png,1,0.9,28,Female,2020-10-21_21h17.55.853,torte-q,2020.1.3,MacIntel,60,14106,2.334095,,,,,0,14,14,1,1,,,,,,,,,,,,,,,,,,,,,,,,,,,,,,,,,,,
,,,,,,,,,,,,a,Correct!,,,,,,t4.png,t5.png,1,0.9,28,Female,2020-10-21_21h17.55.853,torte-q,2020.1.3,MacIntel,60,14106,1.817325,,,,,0,15,15,115,1,,,,,,,,,,,,,,,,,,,,,,,,,,,,,,,,,,,
,,,,,,,,,,,,a,Correct!,,,,,,t1.png,t1.png,0,0.978,28,Female,2020-10-21_21h17.55.853,torte-q,2020.1.3,MacIntel,60,14106,1.01659,,,,,0,16,16,54,1,,,,,,,,,,,,,,,,,,,,,,,,,,,,,,,,,,,
,,,,,,,,,,,,l,Correct!,,,,,,t1.png,t3.png,2,0.056466,28,Female,2020-10-21_21h17.55.853,torte-q,2020.1.3,MacIntel,60,14106,0.984105,,,,,0,17,17,63,1,,,,,,,,,,,,,,,,,,,,,,,,,,,,,,,,,,,
,,,,,,,,,,,,l,Correct!,,,,,,t2.png,t4.png,2,0.059078,28,Female,2020-10-21_21h17.55.853,torte-q,2020.1.3,MacIntel,60,14106,1.37951,,,,,0,18,18,11,1,,,,,,,,,,,,,,,,,,,,,,,,,,,,,,,,,,,
,,,,,,,,,,,,a,Correct!,,,,,,t3.png,t2.png,1,0.909,28,Female,2020-10-21_21h17.55.853,torte-q,2020.1.3,MacIntel,60,14106,0.701985,,,,,0,19,19,23,1,,,,,,,,,,,,,,,,,,,,,,,,,,,,,,,,,,,
,,,,,,,,,,,,l,Correct!,,,,,,t4.png,t2.png,2,0.059078,28,Female,2020-10-21_21h17.55.853,torte-q,2020.1.3,MacIntel,60,14106,1.43422,,,,,0,20,20,86,1,,,,,,,,,,,,,,,,,,,,,,,,,,,,,,,,,,,
,,,,,,,,,,,,a,Correct!,,,,,,t2.png,t1.png,1,0.90025,28,Female,2020-10-21_21h17.55.853,torte-q,2020.1.3,MacIntel,60,14106,1.54853,,,,,0,21,21,5,1,,,,,,,,,,,,,,,,,,,,,,,,,,,,,,,,,,,
,,,,,,,,,,,,a,Correct!,,,,,,t3.png,t2.png,1,0.909,28,Female,2020-10-21_21h17.55.853,torte-q,2020.1.3,MacIntel,60,14106,0.83505,,,,,0,22,22,3,1,,,,,,,,,,,,,,,,,,,,,,,,,,,,,,,,,,,
,,,,,,,,,,,,l,Correct!,,,,,,t1.png,t5.png,4,9.55E-11,28,Female,2020-10-21_21h17.55.853,torte-q,2020.1.3,MacIntel,60,14106,0.767735,,,,,0,23,23,41,1,,,,,,,,,,,,,,,,,,,,,,,,,,,,,,,,,,,
,,,,,,,,,,,,l,Correct!,,,,,,t1.png,t3.png,2,0.056466,28,Female,2020-10-21_21h17.55.853,torte-q,2020.1.3,MacIntel,60,14106,0.76975,,,,,0,24,24,60,1,,,,,,,,,,,,,,,,,,,,,,,,,,,,,,,,,,,
,,,,,,,,,,,,l,Correct!,,,,,,t4.png,t2.png,2,0.059078,28,Female,2020-10-21_21h17.55.853,torte-q,2020.1.3,MacIntel,60,14106,1.319645,,,,,0,25,25,88,1,,,,,,,,,,,,,,,,,,,,,,,,,,,,,,,,,,,
,,,,,,,,,,,,a,Incorrect,,,,,,t3.png,t5.png,2,0.056466,28,Female,2020-10-21_21h17.55.853,torte-q,2020.1.3,MacIntel,60,14106,1.101055,,,,,0,26,26,14,1,,,,,,,,,,,,,,,,,,,,,,,,,,,,,,,,,,,
,,,,,,,,,,,,l,Incorrect,,,,,,t2.png,t3.png,1,0.90855,28,Female,2020-10-21_21h17.55.853,torte-q,2020.1.3,MacIntel,60,14106,1.017855,,,,,0,27,27,10,1,,,,,,,,,,,,,,,,,,,,,,,,,,,,,,,,,,,
,,,,,,,,,,,,l,Correct!,,,,,,t1.png,t3.png,2,0.056466,28,Female,2020-10-21_21h17.55.853,torte-q,2020.1.3,MacIntel,60,14106,0.66915,,,,,0,28,28,99,1,,,,,,,,,,,,,,,,,,,,,,,,,,,,,,,,,,,
,,,,,,,,,,,,l,Incorrect,,,,,,t2.png,t1.png,1,0.9,28,Female,2020-10-21_21h17.55.853,torte-q,2020.1.3,MacIntel,60,14106,2.07902,,,,,0,29,29,118,1,,,,,,,,,,,,,,,,,,,,,,,,,,,,,,,,,,,
,,,,,,,,,,,,a,Incorrect,,,,,,t1.png,t4.png,3,0.0000131,28,Female,2020-10-21_21h17.55.853,torte-q,2020.1.3,MacIntel,60,14106,1.883755,,,,,0,30,30,92,1,,,,,,,,,,,,,,,,,,,,,,,,,,,,,,,,,,,
,,,,,,,,,,,,a,Incorrect,,,,,,t3.png,t5.png,2,0.0565,28,Female,2020-10-21_21h17.55.853,torte-q,2020.1.3,MacIntel,60,14106,1.36729,,,,,0,31,31,30,1,,,,,,,,,,,,,,,,,,,,,,,,,,,,,,,,,,,
,,,,,,,,,,,,l,Correct!,,,,,,t2.png,t4.png,2,0.059078,28,Female,2020-10-21_21h17.55.853,torte-q,2020.1.3,MacIntel,60,14106,1.000905,,,,,0,32,32,24,1,,,,,,,,,,,,,,,,,,,,,,,,,,,,,,,,,,,
,,,,,,,,,,,,l,Correct!,,,,,,t1.png,t3.png,2,0.056466,28,Female,2020-10-21_21h17.55.853,torte-q,2020.1.3,MacIntel,60,14106,0.748455,,,,,0,33,33,87,1,,,,,,,,,,,,,,,,,,,,,,,,,,,,,,,,,,,
,,,,,,,,,,,,a,Correct!,,,,,,t1.png,t1.png,0,0.97829,28,Female,2020-10-21_21h17.55.853,torte-q,2020.1.3,MacIntel,60,14106,0.817295,,,,,0,34,34,9,1,,,,,,,,,,,,,,,,,,,,,,,,,,,,,,,,,,,
,,,,,,,,,,,,a,Incorrect,,,,,,t3.png,t1.png,2,0.056466,28,Female,2020-10-21_21h17.55.853,torte-q,2020.1.3,MacIntel,60,14106,0.867745,,,,,0,35,35,0,1,,,,,,,,,,,,,,,,,,,,,,,,,,,,,,,,,,,
,,,,,,,,,,,,l,Correct!,,,,,,t5.png,t3.png,2,0.056466,28,Female,2020-10-21_21h17.55.853,torte-q,2020.1.3,MacIntel,60,14106,1.16751,,,,,0,36,36,56,1,,,,,,,,,,,,,,,,,,,,,,,,,,,,,,,,,,,
,,,,,,,,,,,,l,Correct!,,,,,,t1.png,t5.png,4,9.55E-11,28,Female,2020-10-21_21h17.55.853,torte-q,2020.1.3,MacIntel,60,14106,0.984195,,,,,0,37,37,85,1,,,,,,,,,,,,,,,,,,,,,,,,,,,,,,,,,,,
,,,,,,,,,,,,a,Incorrect,,,,,,t5.png,t2.png,3,0.0000131,28,Female,2020-10-21_21h17.55.853,torte-q,2020.1.3,MacIntel,60,14106,2.052845,,,,,0,38,38,98,1,,,,,,,,,,,,,,,,,,,,,,,,,,,,,,,,,,,
,,,,,,,,,,,,a,Incorrect,,,,,,t4.png,t1.png,3,0.0000131,28,Female,2020-10-21_21h17.55.853,torte-q,2020.1.3,MacIntel,60,14106,1.900675,,,,,0,39,39,13,1,,,,,,,,,,,,,,,,,,,,,,,,,,,,,,,,,,,
,,,,,,,,,,,,a,Incorrect,,,,,,t3.png,t1.png,2,0.0565,28,Female,2020-10-21_21h17.55.853,torte-q,2020.1.3,MacIntel,60,14106,0.803395,,,,,0,40,40,31,1,,,,,,,,,,,,,,,,,,,,,,,,,,,,,,,,,,,
,,,,,,,,,,,,a,Correct!,,,,,,t4.png,t4.png,0,0.98115,28,Female,2020-10-21_21h17.55.853,torte-q,2020.1.3,MacIntel,60,14106,1.284435,,,,,0,41,41,79,1,,,,,,,,,,,,,,,,,,,,,,,,,,,,,,,,,,,
,,,,,,,,,,,,a,Incorrect,,,,,,t4.png,t1.png,3,0.0000131,28,Female,2020-10-21_21h17.55.853,torte-q,2020.1.3,MacIntel,60,14106,0.967275,,,,,0,42,42,48,1,,,,,,,,,,,,,,,,,,,,,,,,,,,,,,,,,,,
,,,,,,,,,,,,a,Incorrect,,,,,,t4.png,t1.png,3,0.0000131,28,Female,2020-10-21_21h17.55.853,torte-q,2020.1.3,MacIntel,60,14106,0.900045,,,,,0,43,43,93,1,,,,,,,,,,,,,,,,,,,,,,,,,,,,,,,,,,,
,,,,,,,,,,,,a,Correct!,,,,,,t5.png,t5.png,0,0.97829,28,Female,2020-10-21_21h17.55.853,torte-q,2020.1.3,MacIntel,60,14106,0.902835,,,,,0,44,44,70,1,,,,,,,,,,,,,,,,,,,,,,,,,,,,,,,,,,,
,,,,,,,,,,,,a,Correct!,,,,,,t3.png,t2.png,1,0.90855,28,Female,2020-10-21_21h17.55.853,torte-q,2020.1.3,MacIntel,60,14106,0.86376,,,,,0,45,45,53,1,,,,,,,,,,,,,,,,,,,,,,,,,,,,,,,,,,,
,,,,,,,,,,,,l,Correct!,,,,,,t4.png,t2.png,2,0.059078,28,Female,2020-10-21_21h17.55.853,torte-q,2020.1.3,MacIntel,60,14106,0.98401,,,,,0,46,46,110,1,,,,,,,,,,,,,,,,,,,,,,,,,,,,,,,,,,,
,,,,,,,,,,,,l,Correct!,,,,,,t4.png,t3.png,1,0.90855,28,Female,2020-10-21_21h17.55.853,torte-q,2020.1.3,MacIntel,60,14106,1.012475,,,,,0,47,47,35,1,,,,,,,,,,,,,,,,,,,,,,,,,,,,,,,,,,,
,,,,,,,,,,,,l,Correct!,,,,,,t5.png,t3.png,2,0.056466,28,Female,2020-10-21_21h17.55.853,torte-q,2020.1.3,MacIntel,60,14106,1.118645,,,,,0,48,48,114,1,,,,,,,,,,,,,,,,,,,,,,,,,,,,,,,,,,,
,,,,,,,,,,,,l,Incorrect,,,,,,t4.png,t3.png,1,0.909,28,Female,2020-10-21_21h17.55.853,torte-q,2020.1.3,MacIntel,60,14106,0.784095,,,,,0,49,49,46,1,,,,,,,,,,,,,,,,,,,,,,,,,,,,,,,,,,,
,,,,,,,,,,,,a,Incorrect,,,,,,t5.png,t2.png,3,0.0000131,28,Female,2020-10-21_21h17.55.853,torte-q,2020.1.3,MacIntel,60,14106,1.750935,,,,,0,50,50,91,1,,,,,,,,,,,,,,,,,,,,,,,,,,,,,,,,,,,
,,,,,,,,,,,,a,Correct!,,,,,,t1.png,t2.png,1,0.90025,28,Female,2020-10-21_21h17.55.853,torte-q,2020.1.3,MacIntel,60,14106,1.61764,,,,,0,51,51,105,1,,,,,,,,,,,,,,,,,,,,,,,,,,,,,,,,,,,
,,,,,,,,,,,,a,Correct!,,,,,,t4.png,t4.png,0,0.98115,28,Female,2020-10-21_21h17.55.853,torte-q,2020.1.3,MacIntel,60,14106,1.00058,,,,,0,52,52,90,1,,,,,,,,,,,,,,,,,,,,,,,,,,,,,,,,,,,
,,,,,,,,,,,,l,Correct!,,,,,,t1.png,t5.png,4,9.55E-11,28,Female,2020-10-21_21h17.55.853,torte-q,2020.1.3,MacIntel,60,14106,0.836355,,,,,0,53,53,16,1,,,,,,,,,,,,,,,,,,,,,,,,,,,,,,,,,,,
,,,,,,,,,,,,a,Incorrect,,,,,,t3.png,t5.png,2,0.0565,28,Female,2020-10-21_21h17.55.853,torte-q,2020.1.3,MacIntel,60,14106,1.050495,,,,,0,54,54,83,1,,,,,,,,,,,,,,,,,,,,,,,,,,,,,,,,,,,
,,,,,,,,,,,,l,Correct!,,,,,,t2.png,t1.png,1,0.90025,28,Female,2020-10-21_21h17.55.853,torte-q,2020.1.3,MacIntel,60,14106,1.0508,,,,,0,55,55,4,1,,,,,,,,,,,,,,,,,,,,,,,,,,,,,,,,,,,
,,,,,,,,,,,,a,Correct!,,,,,,t3.png,t4.png,1,0.909,28,Female,2020-10-21_21h17.55.853,torte-q,2020.1.3,MacIntel,60,14106,0.735095,,,,,0,56,56,89,1,,,,,,,,,,,,,,,,,,,,,,,,,,,,,,,,,,,
,,,,,,,,,,,,a,Correct!,,,,,,t3.png,t4.png,1,0.90855,28,Female,2020-10-21_21h17.55.853,torte-q,2020.1.3,MacIntel,60,14106,0.78763,,,,,0,57,57,96,1,,,,,,,,,,,,,,,,,,,,,,,,,,,,,,,,,,,
,,,,,,,,,,,,a,Incorrect,,,,,,t2.png,t5.png,3,0.0000131,28,Female,2020-10-21_21h17.55.853,torte-q,2020.1.3,MacIntel,60,14106,1.067505,,,,,0,58,58,40,1,,,,,,,,,,,,,,,,,,,,,,,,,,,,,,,,,,,
,,,,,,,,,,,,l,Correct!,,,,,,t1.png,t5.png,4,9.55E-11,28,Female,2020-10-21_21h17.55.853,torte-q,2020.1.3,MacIntel,60,14106,1.050795,,,,,0,59,59,12,1,,,,,,,,,,,,,,,,,,,,,,,,,,,,,,,,,,,
,,,,,,,,,,,,a,Incorrect,,,,,,t1.png,t4.png,3,0.0000131,28,Female,2020-10-21_21h17.55.853,torte-q,2020.1.3,MacIntel,60,14106,1.64573,,,,,0,60,60,17,1,,,,,,,,,,,,,,,,,,,,,,,,,,,,,,,,,,,
,,,,,,,,,,,,a,Incorrect,,,,,,t5.png,t2.png,3,0.0000131,28,Female,2020-10-21_21h17.55.853,torte-q,2020.1.3,MacIntel,60,14106,2.45071,,,,,0,61,61,51,1,,,,,,,,,,,,,,,,,,,,,,,,,,,,,,,,,,,
,,,,,,,,,,,,a,Incorrect,,,,,,t3.png,t1.png,2,0.056466,28,Female,2020-10-21_21h17.55.853,torte-q,2020.1.3,MacIntel,60,14106,0.634225,,,,,0,62,62,64,1,,,,,,,,,,,,,,,,,,,,,,,,,,,,,,,,,,,
,,,,,,,,,,,,l,Incorrect,,,,,,t1.png,t2.png,1,0.90025,28,Female,2020-10-21_21h17.55.853,torte-q,2020.1.3,MacIntel,60,14106,1.264575,,,,,0,63,63,33,1,,,,,,,,,,,,,,,,,,,,,,,,,,,,,,,,,,,
,,,,,,,,,,,,l,Correct!,,,,,,t5.png,t3.png,2,0.056466,28,Female,2020-10-21_21h17.55.853,torte-q,2020.1.3,MacIntel,60,14106,1.30051,,,,,0,64,64,108,1,,,,,,,,,,,,,,,,,,,,,,,,,,,,,,,,,,,
,,,,,,,,,,,,a,Correct!,,,,,,t5.png,t5.png,0,0.97829,28,Female,2020-10-21_21h17.55.853,torte-q,2020.1.3,MacIntel,60,14106,1.0837,,,,,0,65,65,94,1,,,,,,,,,,,,,,,,,,,,,,,,,,,,,,,,,,,
,,,,,,,,,,,,a,Correct!,,,,,,t4.png,t4.png,0,0.98115,28,Female,2020-10-21_21h17.55.853,torte-q,2020.1.3,MacIntel,60,14106,1.848185,,,,,0,66,66,21,1,,,,,,,,,,,,,,,,,,,,,,,,,,,,,,,,,,,
,,,,,,,,,,,,a,Correct!,,,,,,t2.png,t2.png,0,0.98115,28,Female,2020-10-21_21h17.55.853,torte-q,2020.1.3,MacIntel,60,14106,1.28373,,,,,0,67,67,57,1,,,,,,,,,,,,,,,,,,,,,,,,,,,,,,,,,,,
,,,,,,,,,,,,a,Incorrect,,,,,,t1.png,t4.png,3,0.0000131,28,Female,2020-10-21_21h17.55.853,torte-q,2020.1.3,MacIntel,60,14106,2.3028,,,,,0,68,68,107,1,,,,,,,,,,,,,,,,,,,,,,,,,,,,,,,,,,,
,,,,,,,,,,,,a,Correct!,,,,,,t2.png,t2.png,0,0.98115,28,Female,2020-10-21_21h17.55.853,torte-q,2020.1.3,MacIntel,60,14106,1.0851,,,,,0,69,69,2,1,,,,,,,,,,,,,,,,,,,,,,,,,,,,,,,,,,,
,,,,,,,,,,,,l,Correct!,,,,,,t5.png,t3.png,2,0.0565,28,Female,2020-10-21_21h17.55.853,torte-q,2020.1.3,MacIntel,60,14106,0.986335,,,,,0,70,70,39,1,,,,,,,,,,,,,,,,,,,,,,,,,,,,,,,,,,,
,,,,,,,,,,,,l,Incorrect,,,,,,t2.png,t3.png,1,0.909,28,Female,2020-10-21_21h17.55.853,torte-q,2020.1.3,MacIntel,60,14106,0.61805,,,,,0,71,71,74,1,,,,,,,,,,,,,,,,,,,,,,,,,,,,,,,,,,,
,,,,,,,,,,,,l,Correct!,,,,,,t5.png,t1.png,4,9.55E-11,28,Female,2020-10-21_21h17.55.853,torte-q,2020.1.3,MacIntel,60,14106,0.954445,,,,,0,72,72,100,1,,,,,,,,,,,,,,,,,,,,,,,,,,,,,,,,,,,
,,,,,,,,,,,,a,Correct!,,,,,,t2.png,t1.png,1,0.90025,28,Female,2020-10-21_21h17.55.853,torte-q,2020.1.3,MacIntel,60,14106,1.17935,,,,,0,73,73,62,1,,,,,,,,,,,,,,,,,,,,,,,,,,,,,,,,,,,
,,,,,,,,,,,,a,Correct!,,,,,,t1.png,t2.png,1,0.90025,28,Female,2020-10-21_21h17.55.853,torte-q,2020.1.3,MacIntel,60,14106,1.44917,,,,,0,74,74,72,1,,,,,,,,,,,,,,,,,,,,,,,,,,,,,,,,,,,
,,,,,,,,,,,,l,Correct!,,,,,,t5.png,t1.png,4,9.55E-11,28,Female,2020-10-21_21h17.55.853,torte-q,2020.1.3,MacIntel,60,14106,0.934365,,,,,0,75,75,22,1,,,,,,,,,,,,,,,,,,,,,,,,,,,,,,,,,,,
,,,,,,,,,,,,a,Correct!,,,,,,t2.png,t2.png,0,0.98115,28,Female,2020-10-21_21h17.55.853,torte-q,2020.1.3,MacIntel,60,14106,1.166925,,,,,0,76,76,7,1,,,,,,,,,,,,,,,,,,,,,,,,,,,,,,,,,,,
,,,,,,,,,,,,l,Incorrect,,,,,,t2.png,t3.png,1,0.90855,28,Female,2020-10-21_21h17.55.853,torte-q,2020.1.3,MacIntel,60,14106,0.767625,,,,,0,77,77,65,1,,,,,,,,,,,,,,,,,,,,,,,,,,,,,,,,,,,
,,,,,,,,,,,,a,Correct!,,,,,,t4.png,t5.png,1,0.90025,28,Female,2020-10-21_21h17.55.853,torte-q,2020.1.3,MacIntel,60,14106,2.112805,,,,,0,78,78,47,1,,,,,,,,,,,,,,,,,,,,,,,,,,,,,,,,,,,
,,,,,,,,,,,,a,Correct!,,,,,,t2.png,t4.png,2,0.0591,28,Female,2020-10-21_21h17.55.853,torte-q,2020.1.3,MacIntel,60,14106,1.601405,,,,,0,79,79,15,1,,,,,,,,,,,,,,,,,,,,,,,,,,,,,,,,,,,
,,,,,,,,,,,,a,Incorrect,,,,,,t5.png,t2.png,3,0.0000131,28,Female,2020-10-21_21h17.55.853,torte-q,2020.1.3,MacIntel,60,14106,1.083785,,,,,0,80,80,119,1,,,,,,,,,,,,,,,,,,,,,,,,,,,,,,,,,,,
,,,,,,,,,,,,a,Incorrect,,,,,,t4.png,t1.png,3,0.0000131,28,Female,2020-10-21_21h17.55.853,torte-q,2020.1.3,MacIntel,60,14106,1.30154,,,,,0,81,81,61,1,,,,,,,,,,,,,,,,,,,,,,,,,,,,,,,,,,,
,,,,,,,,,,,,l,Incorrect,,,,,,t4.png,t3.png,1,0.90855,28,Female,2020-10-21_21h17.55.853,torte-q,2020.1.3,MacIntel,60,14106,0.78455,,,,,0,82,82,75,1,,,,,,,,,,,,,,,,,,,,,,,,,,,,,,,,,,,
,,,,,,,,,,,,a,Incorrect,,,,,,t2.png,t5.png,3,0.0000131,28,Female,2020-10-21_21h17.55.853,torte-q,2020.1.3,MacIntel,60,14106,1.267505,,,,,0,83,83,8,1,,,,,,,,,,,,,,,,,,,,,,,,,,,,,,,,,,,
,,,,,,,,,,,,a,Incorrect,,,,,,t3.png,t5.png,2,0.056466,28,Female,2020-10-21_21h17.55.853,torte-q,2020.1.3,MacIntel,60,14106,0.967785,,,,,0,84,84,44,1,,,,,,,,,,,,,,,,,,,,,,,,,,,,,,,,,,,
,,,,,,,,,,,,a,Correct!,,,,,,t5.png,t4.png,1,0.90025,28,Female,2020-10-21_21h17.55.853,torte-q,2020.1.3,MacIntel,60,14106,1.28402,,,,,0,85,85,26,1,,,,,,,,,,,,,,,,,,,,,,,,,,,,,,,,,,,
,,,,,,,,,,,,l,Incorrect,,,,,,t5.png,t3.png,2,0.056466,28,Female,2020-10-21_21h17.55.853,torte-q,2020.1.3,MacIntel,60,14106,0.736995,,,,,0,86,86,38,1,,,,,,,,,,,,,,,,,,,,,,,,,,,,,,,,,,,
,,,,,,,,,,,,a,Correct!,,,,,,t3.png,t2.png,1,0.90855,28,Female,2020-10-21_21h17.55.853,torte-q,2020.1.3,MacIntel,60,14106,0.817355,,,,,0,87,87,18,1,,,,,,,,,,,,,,,,,,,,,,,,,,,,,,,,,,,
,,,,,,,,,,,,l,Incorrect,,,,,,t2.png,t3.png,1,0.90855,28,Female,2020-10-21_21h17.55.853,torte-q,2020.1.3,MacIntel,60,14106,0.76937,,,,,0,88,88,111,1,,,,,,,,,,,,,,,,,,,,,,,,,,,,,,,,,,,
,,,,,,,,,,,,a,Correct!,,,,,,t3.png,t4.png,1,0.909,28,Female,2020-10-21_21h17.55.853,torte-q,2020.1.3,MacIntel,60,14106,0.56777,,,,,0,89,89,82,1,,,,,,,,,,,,,,,,,,,,,,,,,,,,,,,,,,,
,,,,,,,,,,,,a,Incorrect,,,,,,t2.png,t5.png,3,0.0000131,28,Female,2020-10-21_21h17.55.853,torte-q,2020.1.3,MacIntel,60,14106,1.134525,,,,,0,90,90,66,1,,,,,,,,,,,,,,,,,,,,,,,,,,,,,,,,,,,
,,,,,,,,,,,,a,Correct!,,,,,,t5.png,t4.png,1,0.90025,28,Female,2020-10-21_21h17.55.853,torte-q,2020.1.3,MacIntel,60,14106,1.10084,,,,,0,91,91,34,1,,,,,,,,,,,,,,,,,,,,,,,,,,,,,,,,,,,
,,,,,,,,,,,,a,Incorrect,,,,,,t5.png,t2.png,3,0.0000131,28,Female,2020-10-21_21h17.55.853,torte-q,2020.1.3,MacIntel,60,14106,0.97927,,,,,0,92,92,116,1,,,,,,,,,,,,,,,,,,,,,,,,,,,,,,,,,,,
,,,,,,,,,,,,a,Correct!,,,,,,t5.png,t4.png,1,0.9,28,Female,2020-10-21_21h17.55.853,torte-q,2020.1.3,MacIntel,60,14106,0.97913,,,,,0,93,93,76,1,,,,,,,,,,,,,,,,,,,,,,,,,,,,,,,,,,,
,,,,,,,,,,,,a,Correct!,,,,,,t5.png,t4.png,1,0.90025,28,Female,2020-10-21_21h17.55.853,torte-q,2020.1.3,MacIntel,60,14106,1.16242,,,,,0,94,94,27,1,,,,,,,,,,,,,,,,,,,,,,,,,,,,,,,,,,,
,,,,,,,,,,,,l,Correct!,,,,,,t4.png,t2.png,2,0.059078,28,Female,2020-10-21_21h17.55.853,torte-q,2020.1.3,MacIntel,60,14106,1.13343,,,,,0,95,95,109,1,,,,,,,,,,,,,,,,,,,,,,,,,,,,,,,,,,,
,,,,,,,,,,,,a,Incorrect,,,,,,t4.png,t1.png,3,0.0000131,28,Female,2020-10-21_21h17.55.853,torte-q,2020.1.3,MacIntel,60,14106,0.800475,,,,,0,96,96,42,1,,,,,,,,,,,,,,,,,,,,,,,,,,,,,,,,,,,
,,,,,,,,,,,,a,Correct!,,,,,,t4.png,t5.png,1,0.90025,28,Female,2020-10-21_21h17.55.853,torte-q,2020.1.3,MacIntel,60,14106,1.037625,,,,,0,97,97,113,1,,,,,,,,,,,,,,,,,,,,,,,,,,,,,,,,,,,
,,,,,,,,,,,,a,Correct!,,,,,,t2.png,t2.png,0,0.981,28,Female,2020-10-21_21h17.55.853,torte-q,2020.1.3,MacIntel,60,14106,0.950365,,,,,0,98,98,101,1,,,,,,,,,,,,,,,,,,,,,,,,,,,,,,,,,,,
,,,,,,,,,,,,a,Incorrect,,,,,,t1.png,t4.png,3,0.0000131,28,Female,2020-10-21_21h17.55.853,torte-q,2020.1.3,MacIntel,60,14106,1.45064,,,,,0,99,99,81,1,,,,,,,,,,,,,,,,,,,,,,,,,,,,,,,,,,,
,,,,,,,,,,,,a,Correct!,,,,,,t1.png,t1.png,0,0.978,28,Female,2020-10-21_21h17.55.853,torte-q,2020.1.3,MacIntel,60,14106,0.76733,,,,,0,100,100,28,1,,,,,,,,,,,,,,,,,,,,,,,,,,,,,,,,,,,
,,,,,,,,,,,,l,Correct!,,,,,,t2.png,t4.png,2,0.059078,28,Female,2020-10-21_21h17.55.853,torte-q,2020.1.3,MacIntel,60,14106,1.03434,,,,,0,101,101,77,1,,,,,,,,,,,,,,,,,,,,,,,,,,,,,,,,,,,
,,,,,,,,,,,,a,Correct!,,,,,,t2.png,t1.png,1,0.90025,28,Female,2020-10-21_21h17.55.853,torte-q,2020.1.3,MacIntel,60,14106,1.200725,,,,,0,102,102,19,1,,,,,,,,,,,,,,,,,,,,,,,,,,,,,,,,,,,
,,,,,,,,,,,,a,Correct!,,,,,,t5.png,t5.png,0,0.97829,28,Female,2020-10-21_21h17.55.853,torte-q,2020.1.3,MacIntel,60,14106,0.91741,,,,,0,103,103,73,1,,,,,,,,,,,,,,,,,,,,,,,,,,,,,,,,,,,
,,,,,,,,,,,,l,Correct!,,,,,,t5.png,t1.png,4,9.55E-11,28,Female,2020-10-21_21h17.55.853,torte-q,2020.1.3,MacIntel,60,14106,0.83397,,,,,0,104,104,43,1,,,,,,,,,,,,,,,,,,,,,,,,,,,,,,,,,,,
,,,,,,,,,,,,a,Correct!,,,,,,t1.png,t1.png,0,0.97829,28,Female,2020-10-21_21h17.55.853,torte-q,2020.1.3,MacIntel,60,14106,0.9332,,,,,0,105,105,67,1,,,,,,,,,,,,,,,,,,,,,,,,,,,,,,,,,,,
,,,,,,,,,,,,l,Correct!,,,,,,t4.png,t3.png,1,0.90855,28,Female,2020-10-21_21h17.55.853,torte-q,2020.1.3,MacIntel,60,14106,0.870155,,,,,0,106,106,45,1,,,,,,,,,,,,,,,,,,,,,,,,,,,,,,,,,,,
,,,,,,,,,,,,l,Correct!,,,,,,t5.png,t1.png,4,9.55E-11,28,Female,2020-10-21_21h17.55.853,torte-q,2020.1.3,MacIntel,60,14106,1.06661,,,,,0,107,107,71,1,,,,,,,,,,,,,,,,,,,,,,,,,,,,,,,,,,,
,,,,,,,,,,,,a,Correct!,,,,,,t3.png,t4.png,1,0.909,28,Female,2020-10-21_21h17.55.853,torte-q,2020.1.3,MacIntel,60,14106,0.75189,,,,,0,108,108,106,1,,,,,,,,,,,,,,,,,,,,,,,,,,,,,,,,,,,
,,,,,,,,,,,,a,Correct!,,,,,,t4.png,t4.png,0,0.98115,28,Female,2020-10-21_21h17.55.853,torte-q,2020.1.3,MacIntel,60,14106,1.40001,,,,,0,109,109,52,1,,,,,,,,,,,,,,,,,,,,,,,,,,,,,,,,,,,
,,,,,,,,,,,,a,Correct!,,,,,,t4.png,t5.png,1,0.90025,28,Female,2020-10-21_21h17.55.853,torte-q,2020.1.3,MacIntel,60,14106,1.41784,,,,,0,110,110,103,1,,,,,,,,,,,,,,,,,,,,,,,,,,,,,,,,,,,
,,,,,,,,,,,,l,Incorrect,,,,,,t2.png,t3.png,1,0.90855,28,Female,2020-10-21_21h17.55.853,torte-q,2020.1.3,MacIntel,60,14106,0.94603,,,,,0,111,111,68,1,,,,,,,,,,,,,,,,,,,,,,,,,,,,,,,,,,,
,,,,,,,,,,,,a,Incorrect,,,,,,t3.png,t5.png,2,0.056466,28,Female,2020-10-21_21h17.55.853,torte-q,2020.1.3,MacIntel,60,14106,0.800645,,,,,0,112,112,6,1,,,,,,,,,,,,,,,,,,,,,,,,,,,,,,,,,,,
,,,,,,,,,,,,a,Incorrect,,,,,,t1.png,t4.png,3,0.0000131,28,Female,2020-10-21_21h17.55.853,torte-q,2020.1.3,MacIntel,60,14106,1.181735,,,,,0,113,113,50,1,,,,,,,,,,,,,,,,,,,,,,,,,,,,,,,,,,,
,,,,,,,,,,,,a,Incorrect,,,,,,t4.png,t2.png,2,0.0591,28,Female,2020-10-21_21h17.55.853,torte-q,2020.1.3,MacIntel,60,14106,1.617675,,,,,0,114,114,36,1,,,,,,,,,,,,,,,,,,,,,,,,,,,,,,,,,,,
,,,,,,,,,,,,l,Correct!,,,,,,t1.png,t3.png,2,0.056466,28,Female,2020-10-21_21h17.55.853,torte-q,2020.1.3,MacIntel,60,14106,0.68418,,,,,0,115,115,69,1,,,,,,,,,,,,,,,,,,,,,,,,,,,,,,,,,,,
,,,,,,,,,,,,l,Correct!,,,,,,t2.png,t4.png,2,0.059078,28,Female,2020-10-21_21h17.55.853,torte-q,2020.1.3,MacIntel,60,14106,1.150855,,,,,0,116,116,37,1,,,,,,,,,,,,,,,,,,,,,,,,,,,,,,,,,,,
,,,,,,,,,,,,a,Correct!,,,,,,t4.png,t4.png,0,0.98115,28,Female,2020-10-21_21h17.55.853,torte-q,2020.1.3,MacIntel,60,14106,1.167965,,,,,0,117,117,80,1,,,,,,,,,,,,,,,,,,,,,,,,,,,,,,,,,,,
,,,,,,,,,,,,a,Incorrect,,,,,,t3.png,t1.png,2,0.056466,28,Female,2020-10-21_21h17.55.853,torte-q,2020.1.3,MacIntel,60,14106,1.067455,,,,,0,118,118,29,1,,,,,,,,,,,,,,,,,,,,,,,,,,,,,,,,,,,
,,,,,,,,,,,,a,Incorrect,,,,,,t3.png,t1.png,2,0.056466,28,Female,2020-10-21_21h17.55.853,torte-q,2020.1.3,MacIntel,60,14106,0.75264,,,,,0,119,119,32,1,,,,,,,,,,,,,,,,,,,,,,,,,,,,,,,,,,,
,,,,,,,,,,,,l,Correct!,,,,,,t5.png,t3.png,2,0.056466,28,Female,2020-10-21_21h17.55.853,torte-q,2020.1.3,MacIntel,60,14106,1.63354,space,3.11745,,,,,,,,space,6.83285,space,5.33875,0,0,0,108,1,,,,,,,,,,,,,,,,,,,,,,,,,,
,,,,,,,,,,,,a,Correct!,,,,,,t5.png,t4.png,1,0.9,28,Female,2020-10-21_21h17.55.853,torte-q,2020.1.3,MacIntel,60,14106,1.816995,,,,,,,,,,,,,,0,1,1,49,1,,,,,,,,,,,,,,,,,,,,,,,,,,
,,,,,,,,,,,,l,Correct!,,,,,,t4.png,t3.png,1,0.90855,28,Female,2020-10-21_21h17.55.853,torte-q,2020.1.3,MacIntel,60,14106,0.82073,,,,,,,,,,,,,,0,2,2,45,1,,,,,,,,,,,,,,,,,,,,,,,,,,
,,,,,,,,,,,,l,Correct!,,,,,,t5.png,t3.png,2,0.056466,28,Female,2020-10-21_21h17.55.853,torte-q,2020.1.3,MacIntel,60,14106,0.83375,,,,,,,,,,,,,,0,3,3,38,1,,,,,,,,,,,,,,,,,,,,,,,,,,
,,,,,,,,,,,,l,Correct!,,,,,,t4.png,t3.png,1,0.909,28,Female,2020-10-21_21h17.55.853,torte-q,2020.1.3,MacIntel,60,14106,0.784605,,,,,,,,,,,,,,0,4,4,20,1,,,,,,,,,,,,,,,,,,,,,,,,,,
,,,,,,,,,,,,l,Correct!,,,,,,t2.png,t4.png,2,0.059078,28,Female,2020-10-21_21h17.55.853,torte-q,2020.1.3,MacIntel,60,14106,1.03324,,,,,,,,,,,,,,0,5,5,11,1,,,,,,,,,,,,,,,,,,,,,,,,,,
,,,,,,,,,,,,l,Correct!,,,,,,t2.png,t4.png,2,0.059078,28,Female,2020-10-21_21h17.55.853,torte-q,2020.1.3,MacIntel,60,14106,0.75623,,,,,,,,,,,,,,0,6,6,24,1,,,,,,,,,,,,,,,,,,,,,,,,,,
,,,,,,,,,,,,l,Correct!,,,,,,t5.png,t3.png,2,0.056466,28,Female,2020-10-21_21h17.55.853,torte-q,2020.1.3,MacIntel,60,14106,0.98391,,,,,,,,,,,,,,0,7,7,56,1,,,,,,,,,,,,,,,,,,,,,,,,,,
,,,,,,,,,,,,a,Correct!,,,,,,t2.png,t1.png,1,0.9,28,Female,2020-10-21_21h17.55.853,torte-q,2020.1.3,MacIntel,60,14106,1.217605,,,,,,,,,,,,,,0,8,8,118,1,,,,,,,,,,,,,,,,,,,,,,,,,,
,,,,,,,,,,,,a,Incorrect,,,,,,t4.png,t1.png,3,0.0000131,28,Female,2020-10-21_21h17.55.853,torte-q,2020.1.3,MacIntel,60,14106,1.150755,,,,,,,,,,,,,,0,9,9,48,1,,,,,,,,,,,,,,,,,,,,,,,,,,
,,,,,,,,,,,,a,Incorrect,,,,,,t4.png,t1.png,3,0.0000131,28,Female,2020-10-21_21h17.55.853,torte-q,2020.1.3,MacIntel,60,14106,0.74602,,,,,,,,,,,,,,0,10,10,61,1,,,,,,,,,,,,,,,,,,,,,,,,,,
,,,,,,,,,,,,a,Incorrect,,,,,,t1.png,t4.png,3,0.0000131,28,Female,2020-10-21_21h17.55.853,torte-q,2020.1.3,MacIntel,60,14106,1.13399,,,,,,,,,,,,,,0,11,11,92,1,,,,,,,,,,,,,,,,,,,,,,,,,,
,,,,,,,,,,,,a,Correct!,,,,,,t4.png,t4.png,0,0.98115,28,Female,2020-10-21_21h17.55.853,torte-q,2020.1.3,MacIntel,60,14106,1.101355,,,,,,,,,,,,,,0,12,12,52,1,,,,,,,,,,,,,,,,,,,,,,,,,,
,,,,,,,,,,,,a,Correct!,,,,,,t5.png,t5.png,0,0.978,28,Female,2020-10-21_21h17.55.853,torte-q,2020.1.3,MacIntel,60,14106,0.800805,,,,,,,,,,,,,,0,13,13,117,1,,,,,,,,,,,,,,,,,,,,,,,,,,
,,,,,,,,,,,,a,Correct!,,,,,,t1.png,t1.png,0,0.97829,28,Female,2020-10-21_21h17.55.853,torte-q,2020.1.3,MacIntel,60,14106,0.90083,,,,,,,,,,,,,,0,14,14,67,1,,,,,,,,,,,,,,,,,,,,,,,,,,
,,,,,,,,,,,,l,Incorrect,,,,,,t2.png,t3.png,1,0.909,28,Female,2020-10-21_21h17.55.853,torte-q,2020.1.3,MacIntel,60,14106,0.6843,,,,,,,,,,,,,,0,15,15,74,1,,,,,,,,,,,,,,,,,,,,,,,,,,
,,,,,,,,,,,,l,Correct!,,,,,,t5.png,t1.png,4,9.55E-11,28,Female,2020-10-21_21h17.55.853,torte-q,2020.1.3,MacIntel,60,14106,0.950815,,,,,,,,,,,,,,0,16,16,22,1,,,,,,,,,,,,,,,,,,,,,,,,,,
,,,,,,,,,,,,l,Correct!,,,,,,t2.png,t4.png,2,0.059078,28,Female,2020-10-21_21h17.55.853,torte-q,2020.1.3,MacIntel,60,14106,1.35429,,,,,,,,,,,,,,0,17,17,37,1,,,,,,,,,,,,,,,,,,,,,,,,,,
,,,,,,,,,,,,a,Correct!,,,,,,t5.png,t4.png,1,0.90025,28,Female,2020-10-21_21h17.55.853,torte-q,2020.1.3,MacIntel,60,14106,1.484175,,,,,,,,,,,,,,0,18,18,26,1,,,,,,,,,,,,,,,,,,,,,,,,,,
,,,,,,,,,,,,a,Correct!,,,,,,t1.png,t2.png,1,0.90025,28,Female,2020-10-21_21h17.55.853,torte-q,2020.1.3,MacIntel,60,14106,1.60076,,,,,,,,,,,,,,0,19,19,112,1,,,,,,,,,,,,,,,,,,,,,,,,,,
,,,,,,,,,,,,a,Incorrect,,,,,,t5.png,t4.png,1,0.9,28,Female,2020-10-21_21h17.55.853,torte-q,2020.1.3,MacIntel,60,14106,1.617195,,,,,,,,,,,,,,0,20,20,76,1,,,,,,,,,,,,,,,,,,,,,,,,,,
,,,,,,,,,,,,l,Correct!,,,,,,t5.png,t1.png,4,9.55E-11,28,Female,2020-10-21_21h17.55.853,torte-q,2020.1.3,MacIntel,60,14106,0.734285,,,,,,,,,,,,,,0,21,21,102,1,,,,,,,,,,,,,,,,,,,,,,,,,,
,,,,,,,,,,,,a,Incorrect,,,,,,t3.png,t2.png,1,0.90855,28,Female,2020-10-21_21h17.55.853,torte-q,2020.1.3,MacIntel,60,14106,0.71704,,,,,,,,,,,,,,0,22,22,18,1,,,,,,,,,,,,,,,,,,,,,,,,,,
,,,,,,,,,,,,a,Incorrect,,,,,,t5.png,t2.png,3,0.0000131,28,Female,2020-10-21_21h17.55.853,torte-q,2020.1.3,MacIntel,60,14106,1.08359,,,,,,,,,,,,,,0,23,23,91,1,,,,,,,,,,,,,,,,,,,,,,,,,,
,,,,,,,,,,,,a,Incorrect,,,,,,t2.png,t5.png,3,0.0000131,28,Female,2020-10-21_21h17.55.853,torte-q,2020.1.3,MacIntel,60,14106,1.40316,,,,,,,,,,,,,,0,24,24,95,1,,,,,,,,,,,,,,,,,,,,,,,,,,
,,,,,,,,,,,,a,Correct!,,,,,,t1.png,t2.png,1,0.90025,28,Female,2020-10-21_21h17.55.853,torte-q,2020.1.3,MacIntel,60,14106,1.5341,,,,,,,,,,,,,,0,25,25,105,1,,,,,,,,,,,,,,,,,,,,,,,,,,
,,,,,,,,,,,,a,Incorrect,,,,,,t5.png,t2.png,3,0.0000131,28,Female,2020-10-21_21h17.55.853,torte-q,2020.1.3,MacIntel,60,14106,1.2171,,,,,,,,,,,,,,0,26,26,51,1,,,,,,,,,,,,,,,,,,,,,,,,,,
,,,,,,,,,,,,a,Correct!,,,,,,t4.png,t5.png,1,0.90025,28,Female,2020-10-21_21h17.55.853,torte-q,2020.1.3,MacIntel,60,14106,1.567665,,,,,,,,,,,,,,0,27,27,103,1,,,,,,,,,,,,,,,,,,,,,,,,,,
,,,,,,,,,,,,l,Correct!,,,,,,t5.png,t1.png,4,9.55E-11,28,Female,2020-10-21_21h17.55.853,torte-q,2020.1.3,MacIntel,60,14106,1.1192,,,,,,,,,,,,,,0,28,28,100,1,,,,,,,,,,,,,,,,,,,,,,,,,,
,,,,,,,,,,,,a,Incorrect,,,,,,t3.png,t5.png,2,0.0565,28,Female,2020-10-21_21h17.55.853,torte-q,2020.1.3,MacIntel,60,14106,0.99987,,,,,,,,,,,,,,0,29,29,83,1,,,,,,,,,,,,,,,,,,,,,,,,,,
,,,,,,,,,,,,a,Correct!,,,,,,t2.png,t2.png,0,0.98115,28,Female,2020-10-21_21h17.55.853,torte-q,2020.1.3,MacIntel,60,14106,1.26748,,,,,,,,,,,,,,0,30,30,2,1,,,,,,,,,,,,,,,,,,,,,,,,,,
,,,,,,,,,,,,a,Correct!,,,,,,t5.png,t5.png,0,0.97829,28,Female,2020-10-21_21h17.55.853,torte-q,2020.1.3,MacIntel,60,14106,0.786955,,,,,,,,,,,,,,0,31,31,94,1,,,,,,,,,,,,,,,,,,,,,,,,,,
,,,,,,,,,,,,a,Incorrect,,,,,,t3.png,t1.png,2,0.0565,28,Female,2020-10-21_21h17.55.853,torte-q,2020.1.3,MacIntel,60,14106,0.917015,,,,,,,,,,,,,,0,32,32,31,1,,,,,,,,,,,,,,,,,,,,,,,,,,
,,,,,,,,,,,,a,Correct!,,,,,,t4.png,t4.png,0,0.98115,28,Female,2020-10-21_21h17.55.853,torte-q,2020.1.3,MacIntel,60,14106,1.067665,,,,,,,,,,,,,,0,33,33,80,1,,,,,,,,,,,,,,,,,,,,,,,,,,
,,,,,,,,,,,,a,Correct!,,,,,,t2.png,t1.png,1,0.90025,28,Female,2020-10-21_21h17.55.853,torte-q,2020.1.3,MacIntel,60,14106,1.10077,,,,,,,,,,,,,,0,34,34,4,1,,,,,,,,,,,,,,,,,,,,,,,,,,
,,,,,,,,,,,,l,Incorrect,,,,,,t2.png,t3.png,1,0.90855,28,Female,2020-10-21_21h17.55.853,torte-q,2020.1.3,MacIntel,60,14106,0.835325,,,,,,,,,,,,,,0,35,35,68,1,,,,,,,,,,,,,,,,,,,,,,,,,,
,,,,,,,,,,,,a,Incorrect,,,,,,t5.png,t2.png,3,0.0000131,28,Female,2020-10-21_21h17.55.853,torte-q,2020.1.3,MacIntel,60,14106,1.436555,,,,,,,,,,,,,,0,36,36,98,1,,,,,,,,,,,,,,,,,,,,,,,,,,
,,,,,,,,,,,,a,Incorrect,,,,,,t4.png,t1.png,3,0.0000131,28,Female,2020-10-21_21h17.55.853,torte-q,2020.1.3,MacIntel,60,14106,0.8344,,,,,,,,,,,,,,0,37,37,42,1,,,,,,,,,,,,,,,,,,,,,,,,,,
,,,,,,,,,,,,a,Incorrect,,,,,,t3.png,t1.png,2,0.056466,28,Female,2020-10-21_21h17.55.853,torte-q,2020.1.3,MacIntel,60,14106,0.651415,,,,,,,,,,,,,,0,38,38,64,1,,,,,,,,,,,,,,,,,,,,,,,,,,
,,,,,,,,,,,,l,Correct!,,,,,,t1.png,t5.png,4,9.55E-11,28,Female,2020-10-21_21h17.55.853,torte-q,2020.1.3,MacIntel,60,14106,0.78408,,,,,,,,,,,,,,0,39,39,12,1,,,,,,,,,,,,,,,,,,,,,,,,,,
,,,,,,,,,,,,a,Correct!,,,,,,t3.png,t4.png,1,0.909,28,Female,2020-10-21_21h17.55.853,torte-q,2020.1.3,MacIntel,60,14106,0.634335,,,,,,,,,,,,,,0,40,40,89,1,,,,,,,,,,,,,,,,,,,,,,,,,,
,,,,,,,,,,,,a,Correct!,,,,,,t5.png,t5.png,0,0.97829,28,Female,2020-10-21_21h17.55.853,torte-q,2020.1.3,MacIntel,60,14106,0.74949,,,,,,,,,,,,,,0,41,41,73,1,,,,,,,,,,,,,,,,,,,,,,,,,,
,,,,,,,,,,,,a,Incorrect,,,,,,t1.png,t4.png,3,0.0000131,28,Female,2020-10-21_21h17.55.853,torte-q,2020.1.3,MacIntel,60,14106,1.051745,,,,,,,,,,,,,,0,42,42,50,1,,,,,,,,,,,,,,,,,,,,,,,,,,
,,,,,,,,,,,,l,Correct!,,,,,,t5.png,t3.png,2,0.0565,28,Female,2020-10-21_21h17.55.853,torte-q,2020.1.3,MacIntel,60,14106,1.13423,,,,,,,,,,,,,,0,43,43,39,1,,,,,,,,,,,,,,,,,,,,,,,,,,
,,,,,,,,,,,,a,Correct!,,,,,,t3.png,t2.png,1,0.909,28,Female,2020-10-21_21h17.55.853,torte-q,2020.1.3,MacIntel,60,14106,0.667225,,,,,,,,,,,,,,0,44,44,23,1,,,,,,,,,,,,,,,,,,,,,,,,,,
,,,,,,,,,,,,l,Incorrect,,,,,,t2.png,t3.png,1,0.90855,28,Female,2020-10-21_21h17.55.853,torte-q,2020.1.3,MacIntel,60,14106,0.61723,,,,,,,,,,,,,,0,45,45,111,1,,,,,,,,,,,,,,,,,,,,,,,,,,
,,,,,,,,,,,,a,Correct!,,,,,,t1.png,t1.png,0,0.978,28,Female,2020-10-21_21h17.55.853,torte-q,2020.1.3,MacIntel,60,14106,0.86876,,,,,,,,,,,,,,0,46,46,54,1,,,,,,,,,,,,,,,,,,,,,,,,,,
,,,,,,,,,,,,l,Correct!,,,,,,t4.png,t2.png,2,0.059078,28,Female,2020-10-21_21h17.55.853,torte-q,2020.1.3,MacIntel,60,14106,1.084105,,,,,,,,,,,,,,0,47,47,110,1,,,,,,,,,,,,,,,,,,,,,,,,,,
,,,,,,,,,,,,a,Correct!,,,,,,t2.png,t2.png,0,0.98115,28,Female,2020-10-21_21h17.55.853,torte-q,2020.1.3,MacIntel,60,14106,0.786995,,,,,,,,,,,,,,0,48,48,57,1,,,,,,,,,,,,,,,,,,,,,,,,,,
,,,,,,,,,,,,a,Correct!,,,,,,t2.png,t2.png,0,0.98115,28,Female,2020-10-21_21h17.55.853,torte-q,2020.1.3,MacIntel,60,14106,1.146625,,,,,,,,,,,,,,0,49,49,59,1,,,,,,,,,,,,,,,,,,,,,,,,,,
,,,,,,,,,,,,a,Correct!,,,,,,t5.png,t5.png,0,0.97829,28,Female,2020-10-21_21h17.55.853,torte-q,2020.1.3,MacIntel,60,14106,0.800895,,,,,,,,,,,,,,0,50,50,25,1,,,,,,,,,,,,,,,,,,,,,,,,,,
,,,,,,,,,,,,l,Correct!,,,,,,t4.png,t2.png,2,0.059078,28,Female,2020-10-21_21h17.55.853,torte-q,2020.1.3,MacIntel,60,14106,1.53407,,,,,,,,,,,,,,0,51,51,86,1,,,,,,,,,,,,,,,,,,,,,,,,,,
,,,,,,,,,,,,a,Correct!,,,,,,t1.png,t1.png,0,0.97829,28,Female,2020-10-21_21h17.55.853,torte-q,2020.1.3,MacIntel,60,14106,1.167525,,,,,,,,,,,,,,0,52,52,9,1,,,,,,,,,,,,,,,,,,,,,,,,,,
,,,,,,,,,,,,l,Correct!,,,,,,t1.png,t5.png,4,9.55E-11,28,Female,2020-10-21_21h17.55.853,torte-q,2020.1.3,MacIntel,60,14106,0.795965,,,,,,,,,,,,,,0,53,53,55,1,,,,,,,,,,,,,,,,,,,,,,,,,,
,,,,,,,,,,,,l,Correct!,,,,,,t1.png,t3.png,2,0.056466,28,Female,2020-10-21_21h17.55.853,torte-q,2020.1.3,MacIntel,60,14106,0.650635,,,,,,,,,,,,,,0,54,54,63,1,,,,,,,,,,,,,,,,,,,,,,,,,,
,,,,,,,,,,,,a,Correct!,,,,,,t3.png,t2.png,1,0.909,28,Female,2020-10-21_21h17.55.853,torte-q,2020.1.3,MacIntel,60,14106,0.888685,,,,,,,,,,,,,,0,55,55,3,1,,,,,,,,,,,,,,,,,,,,,,,,,,
,,,,,,,,,,,,a,Correct!,,,,,,t4.png,t5.png,1,0.90025,28,Female,2020-10-21_21h17.55.853,torte-q,2020.1.3,MacIntel,60,14106,1.635255,,,,,,,,,,,,,,0,56,56,58,1,,,,,,,,,,,,,,,,,,,,,,,,,,
,,,,,,,,,,,,l,Correct!,,,,,,t1.png,t3.png,2,0.056466,28,Female,2020-10-21_21h17.55.853,torte-q,2020.1.3,MacIntel,60,14106,0.619305,,,,,,,,,,,,,,0,57,57,87,1,,,,,,,,,,,,,,,,,,,,,,,,,,
,,,,,,,,,,,,l,Correct!,,,,,,t1.png,t5.png,4,9.55E-11,28,Female,2020-10-21_21h17.55.853,torte-q,2020.1.3,MacIntel,60,14106,0.88421,,,,,,,,,,,,,,0,58,58,41,1,,,,,,,,,,,,,,,,,,,,,,,,,,
,,,,,,,,,,,,a,Correct!,,,,,,t1.png,t2.png,1,0.9,28,Female,2020-10-21_21h17.55.853,torte-q,2020.1.3,MacIntel,60,14106,1.384295,,,,,,,,,,,,,,0,59,59,1,1,,,,,,,,,,,,,,,,,,,,,,,,,,
,,,,,,,,,,,,a,Correct!,,,,,,t3.png,t4.png,1,0.909,28,Female,2020-10-21_21h17.55.853,torte-q,2020.1.3,MacIntel,60,14106,1.28562,,,,,,,,,,,,,,0,60,60,82,1,,,,,,,,,,,,,,,,,,,,,,,,,,
,,,,,,,,,,,,a,Correct!,,,,,,t2.png,t2.png,0,0.981,28,Female,2020-10-21_21h17.55.853,torte-q,2020.1.3,MacIntel,60,14106,1.00431,,,,,,,,,,,,,,0,61,61,101,1,,,,,,,,,,,,,,,,,,,,,,,,,,
,,,,,,,,,,,,l,Correct!,,,,,,t5.png,t1.png,4,9.55E-11,28,Female,2020-10-21_21h17.55.853,torte-q,2020.1.3,MacIntel,60,14106,0.80068,,,,,,,,,,,,,,0,62,62,43,1,,,,,,,,,,,,,,,,,,,,,,,,,,
,,,,,,,,,,,,l,Incorrect,,,,,,t4.png,t3.png,1,0.90855,28,Female,2020-10-21_21h17.55.853,torte-q,2020.1.3,MacIntel,60,14106,1.267545,,,,,,,,,,,,,,0,63,63,35,1,,,,,,,,,,,,,,,,,,,,,,,,,,
,,,,,,,,,,,,a,Correct!,,,,,,t3.png,t4.png,1,0.90855,28,Female,2020-10-21_21h17.55.853,torte-q,2020.1.3,MacIntel,60,14106,1.454425,,,,,,,,,,,,,,0,64,64,84,1,,,,,,,,,,,,,,,,,,,,,,,,,,
,,,,,,,,,,,,l,Correct!,,,,,,t1.png,t5.png,4,9.55E-11,28,Female,2020-10-21_21h17.55.853,torte-q,2020.1.3,MacIntel,60,14106,0.752905,,,,,,,,,,,,,,0,65,65,85,1,,,,,,,,,,,,,,,,,,,,,,,,,,
,,,,,,,,,,,,a,Incorrect,,,,,,t1.png,t4.png,3,0.0000131,28,Female,2020-10-21_21h17.55.853,torte-q,2020.1.3,MacIntel,60,14106,1.11782,,,,,,,,,,,,,,0,66,66,17,1,,,,,,,,,,,,,,,,,,,,,,,,,,
,,,,,,,,,,,,a,Incorrect,,,,,,t3.png,t5.png,2,0.056466,28,Female,2020-10-21_21h17.55.853,torte-q,2020.1.3,MacIntel,60,14106,1.00075,,,,,,,,,,,,,,0,67,67,44,1,,,,,,,,,,,,,,,,,,,,,,,,,,
,,,,,,,,,,,,a,Incorrect,,,,,,t5.png,t2.png,3,0.0000131,28,Female,2020-10-21_21h17.55.853,torte-q,2020.1.3,MacIntel,60,14106,1.13811,,,,,,,,,,,,,,0,68,68,119,1,,,,,,,,,,,,,,,,,,,,,,,,,,
,,,,,,,,,,,,l,Correct!,,,,,,t5.png,t3.png,2,0.056466,28,Female,2020-10-21_21h17.55.853,torte-q,2020.1.3,MacIntel,60,14106,0.717595,,,,,,,,,,,,,,0,69,69,114,1,,,,,,,,,,,,,,,,,,,,,,,,,,
,,,,,,,,,,,,a,Incorrect,,,,,,t3.png,t1.png,2,0.056466,28,Female,2020-10-21_21h17.55.853,torte-q,2020.1.3,MacIntel,60,14106,0.650495,,,,,,,,,,,,,,0,70,70,32,1,,,,,,,,,,,,,,,,,,,,,,,,,,
,,,,,,,,,,,,a,Incorrect,,,,,,t4.png,t1.png,3,0.0000131,28,Female,2020-10-21_21h17.55.853,torte-q,2020.1.3,MacIntel,60,14106,0.868765,,,,,,,,,,,,,,0,71,71,93,1,,,,,,,,,,,,,,,,,,,,,,,,,,
,,,,,,,,,,,,a,Incorrect,,,,,,t1.png,t4.png,3,0.0000131,28,Female,2020-10-21_21h17.55.853,torte-q,2020.1.3,MacIntel,60,14106,1.71704,,,,,,,,,,,,,,0,72,72,81,1,,,,,,,,,,,,,,,,,,,,,,,,,,
,,,,,,,,,,,,a,Correct!,,,,,,t4.png,t4.png,0,0.98115,28,Female,2020-10-21_21h17.55.853,torte-q,2020.1.3,MacIntel,60,14106,0.85084,,,,,,,,,,,,,,0,73,73,79,1,,,,,,,,,,,,,,,,,,,,,,,,,,
,,,,,,,,,,,,a,Correct!,,,,,,t5.png,t4.png,1,0.90025,28,Female,2020-10-21_21h17.55.853,torte-q,2020.1.3,MacIntel,60,14106,1.13734,,,,,,,,,,,,,,0,74,74,34,1,,,,,,,,,,,,,,,,,,,,,,,,,,
,,,,,,,,,,,,a,Incorrect,,,,,,t2.png,t5.png,3,0.0000131,28,Female,2020-10-21_21h17.55.853,torte-q,2020.1.3,MacIntel,60,14106,0.9502,,,,,,,,,,,,,,0,75,75,104,1,,,,,,,,,,,,,,,,,,,,,,,,,,
,,,,,,,,,,,,a,Correct!,,,,,,t2.png,t1.png,1,0.90025,28,Female,2020-10-21_21h17.55.853,torte-q,2020.1.3,MacIntel,60,14106,1.15067,,,,,,,,,,,,,,0,76,76,19,1,,,,,,,,,,,,,,,,,,,,,,,,,,
,,,,,,,,,,,,a,Incorrect,,,,,,t3.png,t5.png,2,0.056466,28,Female,2020-10-21_21h17.55.853,torte-q,2020.1.3,MacIntel,60,14106,0.833955,,,,,,,,,,,,,,0,77,77,6,1,,,,,,,,,,,,,,,,,,,,,,,,,,
,,,,,,,,,,,,l,Incorrect,,,,,,t2.png,t1.png,1,0.90025,28,Female,2020-10-21_21h17.55.853,torte-q,2020.1.3,MacIntel,60,14106,1.6173,,,,,,,,,,,,,,0,78,78,5,1,,,,,,,,,,,,,,,,,,,,,,,,,,
,,,,,,,,,,,,a,Correct!,,,,,,t1.png,t1.png,0,0.978,28,Female,2020-10-21_21h17.55.853,torte-q,2020.1.3,MacIntel,60,14106,0.870845,,,,,,,,,,,,,,0,79,79,28,1,,,,,,,,,,,,,,,,,,,,,,,,,,
,,,,,,,,,,,,a,Incorrect,,,,,,t2.png,t5.png,3,0.0000131,28,Female,2020-10-21_21h17.55.853,torte-q,2020.1.3,MacIntel,60,14106,0.933665,,,,,,,,,,,,,,0,80,80,40,1,,,,,,,,,,,,,,,,,,,,,,,,,,
,,,,,,,,,,,,a,Incorrect,,,,,,t2.png,t5.png,3,0.0000131,28,Female,2020-10-21_21h17.55.853,torte-q,2020.1.3,MacIntel,60,14106,1.383625,,,,,,,,,,,,,,0,81,81,8,1,,,,,,,,,,,,,,,,,,,,,,,,,,
,,,,,,,,,,,,a,Correct!,,,,,,t3.png,t2.png,1,0.90855,28,Female,2020-10-21_21h17.55.853,torte-q,2020.1.3,MacIntel,60,14106,0.967425,,,,,,,,,,,,,,0,82,82,97,1,,,,,,,,,,,,,,,,,,,,,,,,,,
,,,,,,,,,,,,a,Correct!,,,,,,t4.png,t4.png,0,0.98115,28,Female,2020-10-21_21h17.55.853,torte-q,2020.1.3,MacIntel,60,14106,0.86731,,,,,,,,,,,,,,0,83,83,90,1,,,,,,,,,,,,,,,,,,,,,,,,,,
,,,,,,,,,,,,a,Incorrect,,,,,,t3.png,t5.png,2,0.056466,28,Female,2020-10-21_21h17.55.853,torte-q,2020.1.3,MacIntel,60,14106,1.40282,,,,,,,,,,,,,,0,84,84,14,1,,,,,,,,,,,,,,,,,,,,,,,,,,
,,,,,,,,,,,,l,Correct!,,,,,,t2.png,t4.png,2,0.059078,28,Female,2020-10-21_21h17.55.853,torte-q,2020.1.3,MacIntel,60,14106,1.8487,,,,,,,,,,,,,,0,85,85,77,1,,,,,,,,,,,,,,,,,,,,,,,,,,
,,,,,,,,,,,,l,Incorrect,,,,,,t4.png,t3.png,1,0.909,28,Female,2020-10-21_21h17.55.853,torte-q,2020.1.3,MacIntel,60,14106,1.33698,,,,,,,,,,,,,,0,86,86,46,1,,,,,,,,,,,,,,,,,,,,,,,,,,
,,,,,,,,,,,,a,Correct!,,,,,,t3.png,t4.png,1,0.90855,28,Female,2020-10-21_21h17.55.853,torte-q,2020.1.3,MacIntel,60,14106,1.400155,,,,,,,,,,,,,,0,87,87,96,1,,,,,,,,,,,,,,,,,,,,,,,,,,
,,,,,,,,,,,,l,Incorrect,,,,,,t2.png,t3.png,1,0.90855,28,Female,2020-10-21_21h17.55.853,torte-q,2020.1.3,MacIntel,60,14106,0.81958,,,,,,,,,,,,,,0,88,88,10,1,,,,,,,,,,,,,,,,,,,,,,,,,,
,,,,,,,,,,,,a,Incorrect,,,,,,t3.png,t1.png,2,0.056466,28,Female,2020-10-21_21h17.55.853,torte-q,2020.1.3,MacIntel,60,14106,1.267675,,,,,,,,,,,,,,0,89,89,0,1,,,,,,,,,,,,,,,,,,,,,,,,,,
,,,,,,,,,,,,a,Incorrect,,,,,,t3.png,t5.png,2,0.0565,28,Female,2020-10-21_21h17.55.853,torte-q,2020.1.3,MacIntel,60,14106,1.000625,,,,,,,,,,,,,,0,90,90,30,1,,,,,,,,,,,,,,,,,,,,,,,,,,
,,,,,,,,,,,,a,Incorrect,,,,,,t1.png,t4.png,3,0.0000131,28,Female,2020-10-21_21h17.55.853,torte-q,2020.1.3,MacIntel,60,14106,1.60107,,,,,,,,,,,,,,0,91,91,107,1,,,,,,,,,,,,,,,,,,,,,,,,,,
,,,,,,,,,,,,a,Correct!,,,,,,t1.png,t2.png,1,0.90025,28,Female,2020-10-21_21h17.55.853,torte-q,2020.1.3,MacIntel,60,14106,1.96776,,,,,,,,,,,,,,0,92,92,72,1,,,,,,,,,,,,,,,,,,,,,,,,,,
,,,,,,,,,,,,l,Incorrect,,,,,,t4.png,t3.png,1,0.90855,28,Female,2020-10-21_21h17.55.853,torte-q,2020.1.3,MacIntel,60,14106,0.917145,,,,,,,,,,,,,,0,93,93,75,1,,,,,,,,,,,,,,,,,,,,,,,,,,
,,,,,,,,,,,,l,Incorrect,,,,,,t2.png,t1.png,1,0.90025,28,Female,2020-10-21_21h17.55.853,torte-q,2020.1.3,MacIntel,60,14106,1.300745,,,,,,,,,,,,,,0,94,94,62,1,,,,,,,,,,,,,,,,,,,,,,,,,,
,,,,,,,,,,,,l,Correct!,,,,,,t4.png,t2.png,2,0.059078,28,Female,2020-10-21_21h17.55.853,torte-q,2020.1.3,MacIntel,60,14106,1.43397,,,,,,,,,,,,,,0,95,95,88,1,,,,,,,,,,,,,,,,,,,,,,,,,,
,,,,,,,,,,,,a,Incorrect,,,,,,t4.png,t5.png,1,0.90025,28,Female,2020-10-21_21h17.55.853,torte-q,2020.1.3,MacIntel,60,14106,1.73342,,,,,,,,,,,,,,0,96,96,47,1,,,,,,,,,,,,,,,,,,,,,,,,,,
,,,,,,,,,,,,a,Incorrect,,,,,,t3.png,t1.png,2,0.056466,28,Female,2020-10-21_21h17.55.853,torte-q,2020.1.3,MacIntel,60,14106,0.683735,,,,,,,,,,,,,,0,97,97,29,1,,,,,,,,,,,,,,,,,,,,,,,,,,
,,,,,,,,,,,,a,Correct!,,,,,,t1.png,t1.png,0,0.97829,28,Female,2020-10-21_21h17.55.853,torte-q,2020.1.3,MacIntel,60,14106,0.83534,,,,,,,,,,,,,,0,98,98,78,1,,,,,,,,,,,,,,,,,,,,,,,,,,
,,,,,,,,,,,,l,Correct!,,,,,,t1.png,t3.png,2,0.056466,28,Female,2020-10-21_21h17.55.853,torte-q,2020.1.3,MacIntel,60,14106,0.80168,,,,,,,,,,,,,,0,99,99,69,1,,,,,,,,,,,,,,,,,,,,,,,,,,
,,,,,,,,,,,,a,Correct!,,,,,,t3.png,t2.png,1,0.90855,28,Female,2020-10-21_21h17.55.853,torte-q,2020.1.3,MacIntel,60,14106,0.984345,,,,,,,,,,,,,,0,100,100,53,1,,,,,,,,,,,,,,,,,,,,,,,,,,
,,,,,,,,,,,,a,Incorrect,,,,,,t4.png,t5.png,1,0.9,28,Female,2020-10-21_21h17.55.853,torte-q,2020.1.3,MacIntel,60,14106,1.100545,,,,,,,,,,,,,,0,101,101,115,1,,,,,,,,,,,,,,,,,,,,,,,,,,
,,,,,,,,,,,,l,Correct!,,,,,,t5.png,t1.png,4,9.55E-11,28,Female,2020-10-21_21h17.55.853,torte-q,2020.1.3,MacIntel,60,14106,0.73518,,,,,,,,,,,,,,0,102,102,71,1,,,,,,,,,,,,,,,,,,,,,,,,,,
,,,,,,,,,,,,l,Correct!,,,,,,t1.png,t3.png,2,0.056466,28,Female,2020-10-21_21h17.55.853,torte-q,2020.1.3,MacIntel,60,14106,1.053205,,,,,,,,,,,,,,0,103,103,99,1,,,,,,,,,,,,,,,,,,,,,,,,,,
,,,,,,,,,,,,a,Correct!,,,,,,t3.png,t4.png,1,0.909,28,Female,2020-10-21_21h17.55.853,torte-q,2020.1.3,MacIntel,60,14106,1.30059,,,,,,,,,,,,,,0,104,104,106,1,,,,,,,,,,,,,,,,,,,,,,,,,,
,,,,,,,,,,,,a,Incorrect,,,,,,t2.png,t5.png,3,0.0000131,28,Female,2020-10-21_21h17.55.853,torte-q,2020.1.3,MacIntel,60,14106,1.434055,,,,,,,,,,,,,,0,105,105,66,1,,,,,,,,,,,,,,,,,,,,,,,,,,
,,,,,,,,,,,,a,Incorrect,,,,,,t1.png,t5.png,4,9.55E-11,28,Female,2020-10-21_21h17.55.853,torte-q,2020.1.3,MacIntel,60,14106,1.10073,,,,,,,,,,,,,,0,106,106,16,1,,,,,,,,,,,,,,,,,,,,,,,,,,
,,,,,,,,,,,,l,Correct!,,,,,,t1.png,t3.png,2,0.056466,28,Female,2020-10-21_21h17.55.853,torte-q,2020.1.3,MacIntel,60,14106,0.867455,,,,,,,,,,,,,,0,107,107,60,1,,,,,,,,,,,,,,,,,,,,,,,,,,
,,,,,,,,,,,,a,Correct!,,,,,,t4.png,t4.png,0,0.98115,28,Female,2020-10-21_21h17.55.853,torte-q,2020.1.3,MacIntel,60,14106,0.817355,,,,,,,,,,,,,,0,108,108,21,1,,,,,,,,,,,,,,,,,,,,,,,,,,
,,,,,,,,,,,,a,Correct!,,,,,,t5.png,t4.png,1,0.90025,28,Female,2020-10-21_21h17.55.853,torte-q,2020.1.3,MacIntel,60,14106,1.23392,,,,,,,,,,,,,,0,109,109,27,1,,,,,,,,,,,,,,,,,,,,,,,,,,
,,,,,,,,,,,,a,Incorrect,,,,,,t4.png,t1.png,3,0.0000131,28,Female,2020-10-21_21h17.55.853,torte-q,2020.1.3,MacIntel,60,14106,1.301535,,,,,,,,,,,,,,0,110,110,13,1,,,,,,,,,,,,,,,,,,,,,,,,,,
,,,,,,,,,,,,a,Incorrect,,,,,,t5.png,t2.png,3,0.0000131,28,Female,2020-10-21_21h17.55.853,torte-q,2020.1.3,MacIntel,60,14106,1.06746,,,,,,,,,,,,,,0,111,111,116,1,,,,,,,,,,,,,,,,,,,,,,,,,,
,,,,,,,,,,,,l,Correct!,,,,,,t4.png,t2.png,2,0.059078,28,Female,2020-10-21_21h17.55.853,torte-q,2020.1.3,MacIntel,60,14106,0.93396,,,,,,,,,,,,,,0,112,112,109,1,,,,,,,,,,,,,,,,,,,,,,,,,,
,,,,,,,,,,,,a,Correct!,,,,,,t2.png,t2.png,0,0.98115,28,Female,2020-10-21_21h17.55.853,torte-q,2020.1.3,MacIntel,60,14106,1.150605,,,,,,,,,,,,,,0,113,113,7,1,,,,,,,,,,,,,,,,,,,,,,,,,,
,,,,,,,,,,,,a,Correct!,,,,,,t1.png,t2.png,1,0.90025,28,Female,2020-10-21_21h17.55.853,torte-q,2020.1.3,MacIntel,60,14106,1.65074,,,,,,,,,,,,,,0,114,114,33,1,,,,,,,,,,,,,,,,,,,,,,,,,,
,,,,,,,,,,,,l,Incorrect,,,,,,t2.png,t3.png,1,0.90855,28,Female,2020-10-21_21h17.55.853,torte-q,2020.1.3,MacIntel,60,14106,0.852125,,,,,,,,,,,,,,0,115,115,65,1,,,,,,,,,,,,,,,,,,,,,,,,,,
,,,,,,,,,,,,l,Correct!,,,,,,t4.png,t2.png,2,0.0591,28,Female,2020-10-21_21h17.55.853,torte-q,2020.1.3,MacIntel,60,14106,1.734475,,,,,,,,,,,,,,0,116,116,36,1,,,,,,,,,,,,,,,,,,,,,,,,,,
,,,,,,,,,,,,l,Correct!,,,,,,t2.png,t4.png,2,0.0591,28,Female,2020-10-21_21h17.55.853,torte-q,2020.1.3,MacIntel,60,14106,1.40089,,,,,,,,,,,,,,0,117,117,15,1,,,,,,,,,,,,,,,,,,,,,,,,,,
,,,,,,,,,,,,a,Correct!,,,,,,t5.png,t5.png,0,0.97829,28,Female,2020-10-21_21h17.55.853,torte-q,2020.1.3,MacIntel,60,14106,0.86722,,,,,,,,,,,,,,0,118,118,70,1,,,,,,,,,,,,,,,,,,,,,,,,,,
,,,,,,,,,,,,a,Correct!,,,,,,t4.png,t5.png,1,0.90025,28,Female,2020-10-21_21h17.55.853,torte-q,2020.1.3,MacIntel,60,14106,1.28775,,,,,,,,,,,,,,0,119,119,113,1,,,,,,,,,,,,,,,,,,,,,,,,,,
,,,,,,,,,,,,,,,,,,,,,,,28,Female,2020-10-21_21h17.55.853,torte-q,2020.1.3,MacIntel,60,14106,,space,1.585215,,,,,,,,,,,,,,,,,4.991845703,6.145655,113.8164063,-174.8515625,1,0,0,s7,131.9726563,16.37109375,1,0,0,t2,194.4453125,-101.140625,1,0,0,proceed,space,1.93352,space,0.75252,space,0.41753
