key_resp_8.keys,key_resp_8.rt,key_resp_9.keys,key_resp_9.rt,key_resp_10.keys,key_resp_10.rt,key_resp_11.keys,key_resp_11.rt,key_resp_2.keys,key_resp_2.rt,key_resp_3.keys,key_resp_3.rt,key_resp.keys,Feedback,train.thisRepN,train.thisTrialN,train.thisN,train.thisIndex,train.ran,torta_sx,torta_dx,difference,probability,age,gender,date,expName,psychopyVersion,OS,frameRate,participant,key_resp.rt,key_resp_15.keys,key_resp_15.rt,key_resp_6.keys,key_resp_6.rt,test1.thisRepN,test1.thisTrialN,test1.thisN,test1.thisIndex,test1.ran,key_resp_16.keys,key_resp_16.rt,key_resp_7.keys,key_resp_7.rt,test2.thisRepN,test2.thisTrialN,test2.thisN,test2.thisIndex,test2.ran,rating.response,rating.rt,mouse.x,mouse.y,mouse.leftButton,mouse.midButton,mouse.rightButton,mouse.clicked_name,mouse_2.x,mouse_2.y,mouse_2.leftButton,mouse_2.midButton,mouse_2.rightButton,mouse_2.clicked_name,mouse_3.x,mouse_3.y,mouse_3.leftButton,mouse_3.midButton,mouse_3.rightButton,mouse_3.clicked_name,key_resp_12.keys,key_resp_12.rt,key_resp_13.keys,key_resp_13.rt,key_resp_14.keys,key_resp_14.rt
space,5.6244,space,2.76594,space,2.264435,space,3.65403,space,28.60058,space,63.150605,,Too slow :(,0,0,0,105,1,t3.png,t2.png,1,0.90855,19,female ,2020-11-13_13h54.50.423,torte-q,2020.1.3,Win32,60,14120,,,,,,,,,,,,,,,,,,,,,,,,,,,,,,,,,,,,,,,,,,,,,
,,,,,,,,,,,,l,Incorrect,0,1,1,114,1,t2.png,t3.png,1,0.90855,19,female ,2020-11-13_13h54.50.423,torte-q,2020.1.3,Win32,60,14120,1.13493,,,,,,,,,,,,,,,,,,,,,,,,,,,,,,,,,,,,,,,,,,,,
,,,,,,,,,,,,l,Incorrect,0,2,2,20,1,t2.png,t3.png,1,0.90855,19,female ,2020-11-13_13h54.50.423,torte-q,2020.1.3,Win32,60,14120,1.80118,,,,,,,,,,,,,,,,,,,,,,,,,,,,,,,,,,,,,,,,,,,,
,,,,,,,,,,,,a,Incorrect,0,3,3,47,1,t4.png,t2.png,2,0.059078,19,female ,2020-11-13_13h54.50.423,torte-q,2020.1.3,Win32,60,14120,0.970135,,,,,,,,,,,,,,,,,,,,,,,,,,,,,,,,,,,,,,,,,,,,
,,,,,,,,,,,,l,Incorrect,0,4,4,113,1,t5.png,t4.png,1,0.9,19,female ,2020-11-13_13h54.50.423,torte-q,2020.1.3,Win32,60,14120,1.301635,,,,,,,,,,,,,,,,,,,,,,,,,,,,,,,,,,,,,,,,,,,,
,,,,,,,,,,,,,Too slow :(,0,5,5,37,1,t1.png,t4.png,3,0.0000131,19,female ,2020-11-13_13h54.50.423,torte-q,2020.1.3,Win32,60,14120,,,,,,,,,,,,,,,,,,,,,,,,,,,,,,,,,,,,,,,,,,,,,
,,,,,,,,,,,,a,Correct!,0,6,6,15,1,t3.png,t2.png,1,0.90855,19,female ,2020-11-13_13h54.50.423,torte-q,2020.1.3,Win32,60,14120,1.400645,,,,,,,,,,,,,,,,,,,,,,,,,,,,,,,,,,,,,,,,,,,,
,,,,,,,,,,,,a,Correct!,0,7,7,29,1,t5.png,t5.png,0,0.97829,19,female ,2020-11-13_13h54.50.423,torte-q,2020.1.3,Win32,60,14120,1.71985,,,,,,,,,,,,,,,,,,,,,,,,,,,,,,,,,,,,,,,,,,,,
,,,,,,,,,,,,a,Incorrect,0,8,8,94,1,t5.png,t1.png,4,9.55E-11,19,female ,2020-11-13_13h54.50.423,torte-q,2020.1.3,Win32,60,14120,1.535685,,,,,,,,,,,,,,,,,,,,,,,,,,,,,,,,,,,,,,,,,,,,
,,,,,,,,,,,,a,Incorrect,0,9,9,59,1,t5.png,t4.png,1,0.9,19,female ,2020-11-13_13h54.50.423,torte-q,2020.1.3,Win32,60,14120,1.835085,,,,,,,,,,,,,,,,,,,,,,,,,,,,,,,,,,,,,,,,,,,,
,,,,,,,,,,,,a,Incorrect,0,10,10,82,1,t5.png,t1.png,4,9.55E-11,19,female ,2020-11-13_13h54.50.423,torte-q,2020.1.3,Win32,60,14120,1.70308,,,,,,,,,,,,,,,,,,,,,,,,,,,,,,,,,,,,,,,,,,,,
,,,,,,,,,,,,l,Incorrect,0,11,11,7,1,t4.png,t5.png,1,0.90025,19,female ,2020-11-13_13h54.50.423,torte-q,2020.1.3,Win32,60,14120,1.45119,,,,,,,,,,,,,,,,,,,,,,,,,,,,,,,,,,,,,,,,,,,,
,,,,,,,,,,,,l,Correct!,0,12,12,35,1,t1.png,t4.png,3,0.0000131,19,female ,2020-11-13_13h54.50.423,torte-q,2020.1.3,Win32,60,14120,0.919125,,,,,,,,,,,,,,,,,,,,,,,,,,,,,,,,,,,,,,,,,,,,
,,,,,,,,,,,,l,Correct!,0,13,13,4,1,t1.png,t5.png,4,9.55E-11,19,female ,2020-11-13_13h54.50.423,torte-q,2020.1.3,Win32,60,14120,0.650605,,,,,,,,,,,,,,,,,,,,,,,,,,,,,,,,,,,,,,,,,,,,
,,,,,,,,,,,,l,Correct!,0,14,14,115,1,t2.png,t4.png,2,0.059078,19,female ,2020-11-13_13h54.50.423,torte-q,2020.1.3,Win32,60,14120,0.73397,,,,,,,,,,,,,,,,,,,,,,,,,,,,,,,,,,,,,,,,,,,,
,,,,,,,,,,,,l,Correct!,0,15,15,3,1,t1.png,t5.png,4,9.55E-11,19,female ,2020-11-13_13h54.50.423,torte-q,2020.1.3,Win32,60,14120,0.56544,,,,,,,,,,,,,,,,,,,,,,,,,,,,,,,,,,,,,,,,,,,,
,,,,,,,,,,,,l,Correct!,0,16,16,24,1,t4.png,t2.png,2,0.059078,19,female ,2020-11-13_13h54.50.423,torte-q,2020.1.3,Win32,60,14120,1.22476,,,,,,,,,,,,,,,,,,,,,,,,,,,,,,,,,,,,,,,,,,,,
,,,,,,,,,,,,l,Correct!,0,17,17,30,1,t3.png,t1.png,2,0.056466,19,female ,2020-11-13_13h54.50.423,torte-q,2020.1.3,Win32,60,14120,0.787545,,,,,,,,,,,,,,,,,,,,,,,,,,,,,,,,,,,,,,,,,,,,
,,,,,,,,,,,,l,Incorrect,0,18,18,22,1,t2.png,t3.png,1,0.90855,19,female ,2020-11-13_13h54.50.423,torte-q,2020.1.3,Win32,60,14120,1.102945,,,,,,,,,,,,,,,,,,,,,,,,,,,,,,,,,,,,,,,,,,,,
,,,,,,,,,,,,l,Incorrect,0,19,19,65,1,t4.png,t5.png,1,0.90025,19,female ,2020-11-13_13h54.50.423,torte-q,2020.1.3,Win32,60,14120,1.37153,,,,,,,,,,,,,,,,,,,,,,,,,,,,,,,,,,,,,,,,,,,,
,,,,,,,,,,,,l,Incorrect,0,20,20,48,1,t5.png,t5.png,0,0.97829,19,female ,2020-11-13_13h54.50.423,torte-q,2020.1.3,Win32,60,14120,1.314135,,,,,,,,,,,,,,,,,,,,,,,,,,,,,,,,,,,,,,,,,,,,
,,,,,,,,,,,,l,Incorrect,0,21,21,85,1,t3.png,t2.png,1,0.90855,19,female ,2020-11-13_13h54.50.423,torte-q,2020.1.3,Win32,60,14120,1.08563,,,,,,,,,,,,,,,,,,,,,,,,,,,,,,,,,,,,,,,,,,,,
,,,,,,,,,,,,l,Correct!,0,22,22,90,1,t1.png,t5.png,4,9.55E-11,19,female ,2020-11-13_13h54.50.423,torte-q,2020.1.3,Win32,60,14120,0.755235,,,,,,,,,,,,,,,,,,,,,,,,,,,,,,,,,,,,,,,,,,,,
,,,,,,,,,,,,l,Incorrect,0,23,23,42,1,t5.png,t4.png,1,0.90025,19,female ,2020-11-13_13h54.50.423,torte-q,2020.1.3,Win32,60,14120,1.38088,,,,,,,,,,,,,,,,,,,,,,,,,,,,,,,,,,,,,,,,,,,,
,,,,,,,,,,,,l,Incorrect,0,24,24,75,1,t1.png,t1.png,0,0.97829,19,female ,2020-11-13_13h54.50.423,torte-q,2020.1.3,Win32,60,14120,1.150145,,,,,,,,,,,,,,,,,,,,,,,,,,,,,,,,,,,,,,,,,,,,
,,,,,,,,,,,,l,Correct!,0,25,25,26,1,t4.png,t2.png,2,0.0591,19,female ,2020-11-13_13h54.50.423,torte-q,2020.1.3,Win32,60,14120,1.78251,,,,,,,,,,,,,,,,,,,,,,,,,,,,,,,,,,,,,,,,,,,,
,,,,,,,,,,,,l,Incorrect,0,26,26,8,1,t3.png,t2.png,1,0.90855,19,female ,2020-11-13_13h54.50.423,torte-q,2020.1.3,Win32,60,14120,0.90789,,,,,,,,,,,,,,,,,,,,,,,,,,,,,,,,,,,,,,,,,,,,
,,,,,,,,,,,,a,Correct!,0,27,27,109,1,t5.png,t5.png,0,0.97829,19,female ,2020-11-13_13h54.50.423,torte-q,2020.1.3,Win32,60,14120,1.565665,,,,,,,,,,,,,,,,,,,,,,,,,,,,,,,,,,,,,,,,,,,,
,,,,,,,,,,,,l,Incorrect,0,28,28,41,1,t3.png,t2.png,1,0.90855,19,female ,2020-11-13_13h54.50.423,torte-q,2020.1.3,Win32,60,14120,1.515205,,,,,,,,,,,,,,,,,,,,,,,,,,,,,,,,,,,,,,,,,,,,
,,,,,,,,,,,,l,Incorrect,0,29,29,74,1,t5.png,t4.png,1,0.9,19,female ,2020-11-13_13h54.50.423,torte-q,2020.1.3,Win32,60,14120,1.582,,,,,,,,,,,,,,,,,,,,,,,,,,,,,,,,,,,,,,,,,,,,
,,,,,,,,,,,,l,Correct!,0,30,30,6,1,t1.png,t4.png,3,0.0000131,19,female ,2020-11-13_13h54.50.423,torte-q,2020.1.3,Win32,60,14120,1.421415,,,,,,,,,,,,,,,,,,,,,,,,,,,,,,,,,,,,,,,,,,,,
,,,,,,,,,,,,l,Incorrect,0,31,31,32,1,t4.png,t5.png,1,0.90025,19,female ,2020-11-13_13h54.50.423,torte-q,2020.1.3,Win32,60,14120,0.962295,,,,,,,,,,,,,,,,,,,,,,,,,,,,,,,,,,,,,,,,,,,,
,,,,,,,,,,,,a,Correct!,0,32,32,84,1,t1.png,t1.png,0,0.97829,19,female ,2020-11-13_13h54.50.423,torte-q,2020.1.3,Win32,60,14120,0.99741,,,,,,,,,,,,,,,,,,,,,,,,,,,,,,,,,,,,,,,,,,,,
,,,,,,,,,,,,l,Correct!,0,33,33,60,1,t2.png,t4.png,2,0.059078,19,female ,2020-11-13_13h54.50.423,torte-q,2020.1.3,Win32,60,14120,0.74807,,,,,,,,,,,,,,,,,,,,,,,,,,,,,,,,,,,,,,,,,,,,
,,,,,,,,,,,,a,Correct!,0,34,34,76,1,t3.png,t2.png,1,0.90855,19,female ,2020-11-13_13h54.50.423,torte-q,2020.1.3,Win32,60,14120,1.234595,,,,,,,,,,,,,,,,,,,,,,,,,,,,,,,,,,,,,,,,,,,,
,,,,,,,,,,,,l,Correct!,0,35,35,98,1,t2.png,t4.png,2,0.0591,19,female ,2020-11-13_13h54.50.423,torte-q,2020.1.3,Win32,60,14120,1.03061,,,,,,,,,,,,,,,,,,,,,,,,,,,,,,,,,,,,,,,,,,,,
,,,,,,,,,,,,l,Correct!,0,36,36,72,1,t4.png,t2.png,2,0.059078,19,female ,2020-11-13_13h54.50.423,torte-q,2020.1.3,Win32,60,14120,1.697705,,,,,,,,,,,,,,,,,,,,,,,,,,,,,,,,,,,,,,,,,,,,
,,,,,,,,,,,,a,Correct!,0,37,37,16,1,t5.png,t4.png,1,0.9,19,female ,2020-11-13_13h54.50.423,torte-q,2020.1.3,Win32,60,14120,1.019065,,,,,,,,,,,,,,,,,,,,,,,,,,,,,,,,,,,,,,,,,,,,
,,,,,,,,,,,,a,Incorrect,0,38,38,53,1,t3.png,t1.png,2,0.056466,19,female ,2020-11-13_13h54.50.423,torte-q,2020.1.3,Win32,60,14120,1.550755,,,,,,,,,,,,,,,,,,,,,,,,,,,,,,,,,,,,,,,,,,,,
,,,,,,,,,,,,l,Correct!,0,39,39,67,1,t1.png,t5.png,4,9.55E-11,19,female ,2020-11-13_13h54.50.423,torte-q,2020.1.3,Win32,60,14120,1.29734,,,,,,,,,,,,,,,,,,,,,,,,,,,,,,,,,,,,,,,,,,,,
,,,,,,,,,,,,l,Incorrect,0,40,40,100,1,t4.png,t5.png,1,0.90025,19,female ,2020-11-13_13h54.50.423,torte-q,2020.1.3,Win32,60,14120,1.307595,,,,,,,,,,,,,,,,,,,,,,,,,,,,,,,,,,,,,,,,,,,,
,,,,,,,,,,,,l,Correct!,0,41,41,119,1,t1.png,t5.png,4,9.55E-11,19,female ,2020-11-13_13h54.50.423,torte-q,2020.1.3,Win32,60,14120,1.264165,,,,,,,,,,,,,,,,,,,,,,,,,,,,,,,,,,,,,,,,,,,,
,,,,,,,,,,,,a,Correct!,0,42,42,62,1,t5.png,t5.png,0,0.978,19,female ,2020-11-13_13h54.50.423,torte-q,2020.1.3,Win32,60,14120,1.124415,,,,,,,,,,,,,,,,,,,,,,,,,,,,,,,,,,,,,,,,,,,,
,,,,,,,,,,,,a,Correct!,0,43,43,116,1,t5.png,t4.png,1,0.90025,19,female ,2020-11-13_13h54.50.423,torte-q,2020.1.3,Win32,60,14120,1.690695,,,,,,,,,,,,,,,,,,,,,,,,,,,,,,,,,,,,,,,,,,,,
,,,,,,,,,,,,a,Incorrect,0,44,44,27,1,t3.png,t1.png,2,0.0565,19,female ,2020-11-13_13h54.50.423,torte-q,2020.1.3,Win32,60,14120,1.64773,,,,,,,,,,,,,,,,,,,,,,,,,,,,,,,,,,,,,,,,,,,,
,,,,,,,,,,,,l,Incorrect,0,45,45,104,1,t2.png,t3.png,1,0.90855,19,female ,2020-11-13_13h54.50.423,torte-q,2020.1.3,Win32,60,14120,1.291165,,,,,,,,,,,,,,,,,,,,,,,,,,,,,,,,,,,,,,,,,,,,
,,,,,,,,,,,,a,Correct!,0,46,46,79,1,t3.png,t2.png,1,0.909,19,female ,2020-11-13_13h54.50.423,torte-q,2020.1.3,Win32,60,14120,1.54171,,,,,,,,,,,,,,,,,,,,,,,,,,,,,,,,,,,,,,,,,,,,
,,,,,,,,,,,,l,Incorrect,0,47,47,10,1,t2.png,t3.png,1,0.90855,19,female ,2020-11-13_13h54.50.423,torte-q,2020.1.3,Win32,60,14120,0.650615,,,,,,,,,,,,,,,,,,,,,,,,,,,,,,,,,,,,,,,,,,,,
,,,,,,,,,,,,a,Incorrect,0,48,48,43,1,t4.png,t2.png,2,0.059078,19,female ,2020-11-13_13h54.50.423,torte-q,2020.1.3,Win32,60,14120,0.581235,,,,,,,,,,,,,,,,,,,,,,,,,,,,,,,,,,,,,,,,,,,,
,,,,,,,,,,,,l,Incorrect,0,49,49,34,1,t5.png,t4.png,1,0.9,19,female ,2020-11-13_13h54.50.423,torte-q,2020.1.3,Win32,60,14120,1.55254,,,,,,,,,,,,,,,,,,,,,,,,,,,,,,,,,,,,,,,,,,,,
,,,,,,,,,,,,l,Correct!,0,50,50,5,1,t2.png,t4.png,2,0.059078,19,female ,2020-11-13_13h54.50.423,torte-q,2020.1.3,Win32,60,14120,1.70171,,,,,,,,,,,,,,,,,,,,,,,,,,,,,,,,,,,,,,,,,,,,
,,,,,,,,,,,,a,Incorrect,0,51,51,51,1,t3.png,t1.png,2,0.056466,19,female ,2020-11-13_13h54.50.423,torte-q,2020.1.3,Win32,60,14120,1.43047,,,,,,,,,,,,,,,,,,,,,,,,,,,,,,,,,,,,,,,,,,,,
,,,,,,,,,,,,a,Incorrect,0,52,52,99,1,t1.png,t5.png,4,9.55E-11,19,female ,2020-11-13_13h54.50.423,torte-q,2020.1.3,Win32,60,14120,1.000985,,,,,,,,,,,,,,,,,,,,,,,,,,,,,,,,,,,,,,,,,,,,
,,,,,,,,,,,,l,Correct!,0,53,53,56,1,t5.png,t1.png,4,9.55E-11,19,female ,2020-11-13_13h54.50.423,torte-q,2020.1.3,Win32,60,14120,0.766475,,,,,,,,,,,,,,,,,,,,,,,,,,,,,,,,,,,,,,,,,,,,
,,,,,,,,,,,,l,Correct!,0,54,54,28,1,t2.png,t3.png,1,0.909,19,female ,2020-11-13_13h54.50.423,torte-q,2020.1.3,Win32,60,14120,0.981,,,,,,,,,,,,,,,,,,,,,,,,,,,,,,,,,,,,,,,,,,,,
,,,,,,,,,,,,l,Correct!,0,55,55,86,1,t3.png,t1.png,2,0.056466,19,female ,2020-11-13_13h54.50.423,torte-q,2020.1.3,Win32,60,14120,2.104115,,,,,,,,,,,,,,,,,,,,,,,,,,,,,,,,,,,,,,,,,,,,
,,,,,,,,,,,,a,Correct!,0,56,56,23,1,t5.png,t4.png,1,0.90025,19,female ,2020-11-13_13h54.50.423,torte-q,2020.1.3,Win32,60,14120,1.03563,,,,,,,,,,,,,,,,,,,,,,,,,,,,,,,,,,,,,,,,,,,,
,,,,,,,,,,,,l,Correct!,0,57,57,57,1,t2.png,t4.png,2,0.059078,19,female ,2020-11-13_13h54.50.423,torte-q,2020.1.3,Win32,60,14120,1.65561,,,,,,,,,,,,,,,,,,,,,,,,,,,,,,,,,,,,,,,,,,,,
,,,,,,,,,,,,l,Correct!,0,58,58,38,1,t3.png,t1.png,2,0.056466,19,female ,2020-11-13_13h54.50.423,torte-q,2020.1.3,Win32,60,14120,0.66457,,,,,,,,,,,,,,,,,,,,,,,,,,,,,,,,,,,,,,,,,,,,
,,,,,,,,,,,,l,Incorrect,0,59,59,92,1,t2.png,t3.png,1,0.909,19,female ,2020-11-13_13h54.50.423,torte-q,2020.1.3,Win32,60,14120,1.614215,,,,,,,,,,,,,,,,,,,,,,,,,,,,,,,,,,,,,,,,,,,,
,,,,,,,,,,,,a,Correct!,0,60,60,13,1,t5.png,t5.png,0,0.97829,19,female ,2020-11-13_13h54.50.423,torte-q,2020.1.3,Win32,60,14120,0.639635,,,,,,,,,,,,,,,,,,,,,,,,,,,,,,,,,,,,,,,,,,,,
,,,,,,,,,,,,l,Correct!,0,61,61,111,1,t5.png,t1.png,4,9.55E-11,19,female ,2020-11-13_13h54.50.423,torte-q,2020.1.3,Win32,60,14120,0.91431,,,,,,,,,,,,,,,,,,,,,,,,,,,,,,,,,,,,,,,,,,,,
,,,,,,,,,,,,a,Correct!,0,62,62,25,1,t5.png,t5.png,0,0.97829,19,female ,2020-11-13_13h54.50.423,torte-q,2020.1.3,Win32,60,14120,0.755445,,,,,,,,,,,,,,,,,,,,,,,,,,,,,,,,,,,,,,,,,,,,
,,,,,,,,,,,,a,Incorrect,0,63,63,40,1,t1.png,t5.png,4,9.55E-11,19,female ,2020-11-13_13h54.50.423,torte-q,2020.1.3,Win32,60,14120,0.816965,,,,,,,,,,,,,,,,,,,,,,,,,,,,,,,,,,,,,,,,,,,,
,,,,,,,,,,,,l,Correct!,0,64,64,108,1,t5.png,t1.png,4,9.55E-11,19,female ,2020-11-13_13h54.50.423,torte-q,2020.1.3,Win32,60,14120,0.622325,,,,,,,,,,,,,,,,,,,,,,,,,,,,,,,,,,,,,,,,,,,,
,,,,,,,,,,,,l,Correct!,0,65,65,87,1,t5.png,t1.png,4,9.55E-11,19,female ,2020-11-13_13h54.50.423,torte-q,2020.1.3,Win32,60,14120,0.68877,,,,,,,,,,,,,,,,,,,,,,,,,,,,,,,,,,,,,,,,,,,,
,,,,,,,,,,,,l,Incorrect,0,66,66,101,1,t4.png,t5.png,1,0.90025,19,female ,2020-11-13_13h54.50.423,torte-q,2020.1.3,Win32,60,14120,1.76728,,,,,,,,,,,,,,,,,,,,,,,,,,,,,,,,,,,,,,,,,,,,
,,,,,,,,,,,,a,Incorrect,0,67,67,110,1,t4.png,t5.png,1,0.90025,19,female ,2020-11-13_13h54.50.423,torte-q,2020.1.3,Win32,60,14120,1.47308,,,,,,,,,,,,,,,,,,,,,,,,,,,,,,,,,,,,,,,,,,,,
,,,,,,,,,,,,l,Incorrect,0,68,68,78,1,t1.png,t1.png,0,0.978,19,female ,2020-11-13_13h54.50.423,torte-q,2020.1.3,Win32,60,14120,0.670345,,,,,,,,,,,,,,,,,,,,,,,,,,,,,,,,,,,,,,,,,,,,
,,,,,,,,,,,,l,Incorrect,0,69,69,49,1,t4.png,t5.png,1,0.9,19,female ,2020-11-13_13h54.50.423,torte-q,2020.1.3,Win32,60,14120,1.439745,,,,,,,,,,,,,,,,,,,,,,,,,,,,,,,,,,,,,,,,,,,,
,,,,,,,,,,,,a,Incorrect,0,70,70,68,1,t1.png,t4.png,3,0.0000131,19,female ,2020-11-13_13h54.50.423,torte-q,2020.1.3,Win32,60,14120,1.684195,,,,,,,,,,,,,,,,,,,,,,,,,,,,,,,,,,,,,,,,,,,,
,,,,,,,,,,,,l,Correct!,0,71,71,12,1,t5.png,t1.png,4,9.55E-11,19,female ,2020-11-13_13h54.50.423,torte-q,2020.1.3,Win32,60,14120,1.76781,,,,,,,,,,,,,,,,,,,,,,,,,,,,,,,,,,,,,,,,,,,,
,,,,,,,,,,,,l,Correct!,0,72,72,103,1,t3.png,t1.png,2,0.056466,19,female ,2020-11-13_13h54.50.423,torte-q,2020.1.3,Win32,60,14120,0.51388,,,,,,,,,,,,,,,,,,,,,,,,,,,,,,,,,,,,,,,,,,,,
,,,,,,,,,,,,,Too slow :(,0,73,73,1,1,t2.png,t4.png,2,0.059078,19,female ,2020-11-13_13h54.50.423,torte-q,2020.1.3,Win32,60,14120,,,,,,,,,,,,,,,,,,,,,,,,,,,,,,,,,,,,,,,,,,,,,
,,,,,,,,,,,,l,Incorrect,0,74,74,63,1,t2.png,t3.png,1,0.909,19,female ,2020-11-13_13h54.50.423,torte-q,2020.1.3,Win32,60,14120,1.46779,,,,,,,,,,,,,,,,,,,,,,,,,,,,,,,,,,,,,,,,,,,,
,,,,,,,,,,,,l,Incorrect,0,75,75,83,1,t3.png,t1.png,2,0.056466,19,female ,2020-11-13_13h54.50.423,torte-q,2020.1.3,Win32,60,14120,0.848395,,,,,,,,,,,,,,,,,,,,,,,,,,,,,,,,,,,,,,,,,,,,
,,,,,,,,,,,,a,Correct!,0,76,76,21,1,t5.png,t4.png,1,0.90025,19,female ,2020-11-13_13h54.50.423,torte-q,2020.1.3,Win32,60,14120,0.689185,,,,,,,,,,,,,,,,,,,,,,,,,,,,,,,,,,,,,,,,,,,,
,,,,,,,,,,,,a,Correct!,0,77,77,71,1,t5.png,t5.png,0,0.97829,19,female ,2020-11-13_13h54.50.423,torte-q,2020.1.3,Win32,60,14120,1.26802,,,,,,,,,,,,,,,,,,,,,,,,,,,,,,,,,,,,,,,,,,,,
,,,,,,,,,,,,l,Correct!,0,78,78,46,1,t4.png,t2.png,2,0.059078,19,female ,2020-11-13_13h54.50.423,torte-q,2020.1.3,Win32,60,14120,1.086535,,,,,,,,,,,,,,,,,,,,,,,,,,,,,,,,,,,,,,,,,,,,
,,,,,,,,,,,,a,Correct!,0,79,79,81,1,t1.png,t1.png,0,0.97829,19,female ,2020-11-13_13h54.50.423,torte-q,2020.1.3,Win32,60,14120,1.050725,,,,,,,,,,,,,,,,,,,,,,,,,,,,,,,,,,,,,,,,,,,,
,,,,,,,,,,,,l,Correct!,0,80,80,14,1,t2.png,t4.png,2,0.059078,19,female ,2020-11-13_13h54.50.423,torte-q,2020.1.3,Win32,60,14120,1.49874,,,,,,,,,,,,,,,,,,,,,,,,,,,,,,,,,,,,,,,,,,,,
,,,,,,,,,,,,,Too slow :(,0,81,81,0,1,t5.png,t1.png,4,9.55E-11,19,female ,2020-11-13_13h54.50.423,torte-q,2020.1.3,Win32,60,14120,,,,,,,,,,,,,,,,,,,,,,,,,,,,,,,,,,,,,,,,,,,,,
,,,,,,,,,,,,a,Correct!,0,82,82,77,1,t1.png,t1.png,0,0.97829,19,female ,2020-11-13_13h54.50.423,torte-q,2020.1.3,Win32,60,14120,0.852755,,,,,,,,,,,,,,,,,,,,,,,,,,,,,,,,,,,,,,,,,,,,
,,,,,,,,,,,,a,Correct!,0,83,83,95,1,t1.png,t1.png,0,0.978,19,female ,2020-11-13_13h54.50.423,torte-q,2020.1.3,Win32,60,14120,0.78056,,,,,,,,,,,,,,,,,,,,,,,,,,,,,,,,,,,,,,,,,,,,
,,,,,,,,,,,,l,Correct!,0,84,84,80,1,t1.png,t4.png,3,0.0000131,19,female ,2020-11-13_13h54.50.423,torte-q,2020.1.3,Win32,60,14120,1.33929,,,,,,,,,,,,,,,,,,,,,,,,,,,,,,,,,,,,,,,,,,,,
,,,,,,,,,,,,a,Correct!,0,85,85,70,1,t5.png,t5.png,0,0.978,19,female ,2020-11-13_13h54.50.423,torte-q,2020.1.3,Win32,60,14120,0.68848,,,,,,,,,,,,,,,,,,,,,,,,,,,,,,,,,,,,,,,,,,,,
,,,,,,,,,,,,a,Correct!,0,86,86,69,1,t4.png,t2.png,2,0.059078,19,female ,2020-11-13_13h54.50.423,torte-q,2020.1.3,Win32,60,14120,1.81541,,,,,,,,,,,,,,,,,,,,,,,,,,,,,,,,,,,,,,,,,,,,
,,,,,,,,,,,,l,Correct!,0,87,87,73,1,t4.png,t2.png,2,0.059078,19,female ,2020-11-13_13h54.50.423,torte-q,2020.1.3,Win32,60,14120,1.330755,,,,,,,,,,,,,,,,,,,,,,,,,,,,,,,,,,,,,,,,,,,,
,,,,,,,,,,,,a,Correct!,0,88,88,44,1,t2.png,t3.png,1,0.909,19,female ,2020-11-13_13h54.50.423,torte-q,2020.1.3,Win32,60,14120,2.31719,,,,,,,,,,,,,,,,,,,,,,,,,,,,,,,,,,,,,,,,,,,,
,,,,,,,,,,,,l,Correct!,0,89,89,19,1,t4.png,t2.png,2,0.059078,19,female ,2020-11-13_13h54.50.423,torte-q,2020.1.3,Win32,60,14120,1.30135,,,,,,,,,,,,,,,,,,,,,,,,,,,,,,,,,,,,,,,,,,,,
,,,,,,,,,,,,l,Correct!,0,90,90,117,1,t1.png,t5.png,4,9.55E-11,19,female ,2020-11-13_13h54.50.423,torte-q,2020.1.3,Win32,60,14120,1.569915,,,,,,,,,,,,,,,,,,,,,,,,,,,,,,,,,,,,,,,,,,,,
,,,,,,,,,,,,a,Correct!,0,91,91,97,1,t5.png,t5.png,0,0.97829,19,female ,2020-11-13_13h54.50.423,torte-q,2020.1.3,Win32,60,14120,0.865095,,,,,,,,,,,,,,,,,,,,,,,,,,,,,,,,,,,,,,,,,,,,
,,,,,,,,,,,,l,Incorrect,0,92,92,45,1,t3.png,t2.png,1,0.90855,19,female ,2020-11-13_13h54.50.423,torte-q,2020.1.3,Win32,60,14120,2.3137,,,,,,,,,,,,,,,,,,,,,,,,,,,,,,,,,,,,,,,,,,,,
,,,,,,,,,,,,a,Correct!,0,93,93,39,1,t3.png,t2.png,1,0.90855,19,female ,2020-11-13_13h54.50.423,torte-q,2020.1.3,Win32,60,14120,0.8549,,,,,,,,,,,,,,,,,,,,,,,,,,,,,,,,,,,,,,,,,,,,
,,,,,,,,,,,,l,Correct!,0,94,94,88,1,t3.png,t1.png,2,0.056466,19,female ,2020-11-13_13h54.50.423,torte-q,2020.1.3,Win32,60,14120,1.602985,,,,,,,,,,,,,,,,,,,,,,,,,,,,,,,,,,,,,,,,,,,,
,,,,,,,,,,,,,Too slow :(,0,95,95,9,1,t4.png,t5.png,1,0.9,19,female ,2020-11-13_13h54.50.423,torte-q,2020.1.3,Win32,60,14120,,,,,,,,,,,,,,,,,,,,,,,,,,,,,,,,,,,,,,,,,,,,,
,,,,,,,,,,,,l,Correct!,0,96,96,61,1,t1.png,t4.png,3,0.0000131,19,female ,2020-11-13_13h54.50.423,torte-q,2020.1.3,Win32,60,14120,1.917915,,,,,,,,,,,,,,,,,,,,,,,,,,,,,,,,,,,,,,,,,,,,
,,,,,,,,,,,,l,Correct!,0,97,97,93,1,t2.png,t4.png,2,0.059078,19,female ,2020-11-13_13h54.50.423,torte-q,2020.1.3,Win32,60,14120,1.434655,,,,,,,,,,,,,,,,,,,,,,,,,,,,,,,,,,,,,,,,,,,,
,,,,,,,,,,,,a,Correct!,0,98,98,112,1,t1.png,t1.png,0,0.97829,19,female ,2020-11-13_13h54.50.423,torte-q,2020.1.3,Win32,60,14120,0.834985,,,,,,,,,,,,,,,,,,,,,,,,,,,,,,,,,,,,,,,,,,,,
,,,,,,,,,,,,l,Correct!,0,99,99,54,1,t1.png,t5.png,4,9.55E-11,19,female ,2020-11-13_13h54.50.423,torte-q,2020.1.3,Win32,60,14120,1.55938,,,,,,,,,,,,,,,,,,,,,,,,,,,,,,,,,,,,,,,,,,,,
,,,,,,,,,,,,a,Incorrect,0,100,100,17,1,t1.png,t4.png,3,0.0000131,19,female ,2020-11-13_13h54.50.423,torte-q,2020.1.3,Win32,60,14120,1.492725,,,,,,,,,,,,,,,,,,,,,,,,,,,,,,,,,,,,,,,,,,,,
,,,,,,,,,,,,l,Correct!,0,101,101,102,1,t4.png,t2.png,2,0.059078,19,female ,2020-11-13_13h54.50.423,torte-q,2020.1.3,Win32,60,14120,1.56991,,,,,,,,,,,,,,,,,,,,,,,,,,,,,,,,,,,,,,,,,,,,
,,,,,,,,,,,,a,Correct!,0,102,102,96,1,t1.png,t1.png,0,0.97829,19,female ,2020-11-13_13h54.50.423,torte-q,2020.1.3,Win32,60,14120,0.787485,,,,,,,,,,,,,,,,,,,,,,,,,,,,,,,,,,,,,,,,,,,,
,,,,,,,,,,,,a,Correct!,0,103,103,2,1,t3.png,t2.png,1,0.90855,19,female ,2020-11-13_13h54.50.423,torte-q,2020.1.3,Win32,60,14120,1.60242,,,,,,,,,,,,,,,,,,,,,,,,,,,,,,,,,,,,,,,,,,,,
,,,,,,,,,,,,a,Correct!,0,104,104,18,1,t4.png,t5.png,1,0.90025,19,female ,2020-11-13_13h54.50.423,torte-q,2020.1.3,Win32,60,14120,1.54886,,,,,,,,,,,,,,,,,,,,,,,,,,,,,,,,,,,,,,,,,,,,
,,,,,,,,,,,,a,Correct!,0,105,105,64,1,t1.png,t1.png,0,0.978,19,female ,2020-11-13_13h54.50.423,torte-q,2020.1.3,Win32,60,14120,0.8014,,,,,,,,,,,,,,,,,,,,,,,,,,,,,,,,,,,,,,,,,,,,
,,,,,,,,,,,,l,Correct!,0,106,106,31,1,t1.png,t5.png,4,9.55E-11,19,female ,2020-11-13_13h54.50.423,torte-q,2020.1.3,Win32,60,14120,1.74872,,,,,,,,,,,,,,,,,,,,,,,,,,,,,,,,,,,,,,,,,,,,
,,,,,,,,,,,,a,Incorrect,0,107,107,50,1,t5.png,t1.png,4,9.55E-11,19,female ,2020-11-13_13h54.50.423,torte-q,2020.1.3,Win32,60,14120,1.96752,,,,,,,,,,,,,,,,,,,,,,,,,,,,,,,,,,,,,,,,,,,,
,,,,,,,,,,,,a,Incorrect,0,108,108,36,1,t3.png,t1.png,2,0.0565,19,female ,2020-11-13_13h54.50.423,torte-q,2020.1.3,Win32,60,14120,2.45369,,,,,,,,,,,,,,,,,,,,,,,,,,,,,,,,,,,,,,,,,,,,
,,,,,,,,,,,,l,Correct!,0,109,109,52,1,t2.png,t4.png,2,0.059078,19,female ,2020-11-13_13h54.50.423,torte-q,2020.1.3,Win32,60,14120,1.22306,,,,,,,,,,,,,,,,,,,,,,,,,,,,,,,,,,,,,,,,,,,,
,,,,,,,,,,,,l,Correct!,0,110,110,11,1,t1.png,t4.png,3,0.0000131,19,female ,2020-11-13_13h54.50.423,torte-q,2020.1.3,Win32,60,14120,1.10357,,,,,,,,,,,,,,,,,,,,,,,,,,,,,,,,,,,,,,,,,,,,
,,,,,,,,,,,,l,Correct!,0,111,111,91,1,t1.png,t4.png,3,0.0000131,19,female ,2020-11-13_13h54.50.423,torte-q,2020.1.3,Win32,60,14120,0.56784,,,,,,,,,,,,,,,,,,,,,,,,,,,,,,,,,,,,,,,,,,,,
,,,,,,,,,,,,l,Correct!,0,112,112,89,1,t1.png,t4.png,3,0.0000131,19,female ,2020-11-13_13h54.50.423,torte-q,2020.1.3,Win32,60,14120,0.883985,,,,,,,,,,,,,,,,,,,,,,,,,,,,,,,,,,,,,,,,,,,,
,,,,,,,,,,,,a,Correct!,0,113,113,118,1,t5.png,t5.png,0,0.978,19,female ,2020-11-13_13h54.50.423,torte-q,2020.1.3,Win32,60,14120,0.82315,,,,,,,,,,,,,,,,,,,,,,,,,,,,,,,,,,,,,,,,,,,,
,,,,,,,,,,,,a,Correct!,0,114,114,106,1,t2.png,t3.png,1,0.90855,19,female ,2020-11-13_13h54.50.423,torte-q,2020.1.3,Win32,60,14120,1.445795,,,,,,,,,,,,,,,,,,,,,,,,,,,,,,,,,,,,,,,,,,,,
,,,,,,,,,,,,l,Correct!,0,115,115,33,1,t5.png,t1.png,4,9.55E-11,19,female ,2020-11-13_13h54.50.423,torte-q,2020.1.3,Win32,60,14120,1.851175,,,,,,,,,,,,,,,,,,,,,,,,,,,,,,,,,,,,,,,,,,,,
,,,,,,,,,,,,l,Correct!,0,116,116,55,1,t2.png,t4.png,2,0.059078,19,female ,2020-11-13_13h54.50.423,torte-q,2020.1.3,Win32,60,14120,1.282425,,,,,,,,,,,,,,,,,,,,,,,,,,,,,,,,,,,,,,,,,,,,
,,,,,,,,,,,,a,Correct!,0,117,117,58,1,t5.png,t4.png,1,0.90025,19,female ,2020-11-13_13h54.50.423,torte-q,2020.1.3,Win32,60,14120,0.88122,,,,,,,,,,,,,,,,,,,,,,,,,,,,,,,,,,,,,,,,,,,,
,,,,,,,,,,,,l,Incorrect,0,118,118,66,1,t4.png,t5.png,1,0.9,19,female ,2020-11-13_13h54.50.423,torte-q,2020.1.3,Win32,60,14120,1.38911,,,,,,,,,,,,,,,,,,,,,,,,,,,,,,,,,,,,,,,,,,,,
,,,,,,,,,,,,a,Correct!,0,119,119,107,1,t1.png,t1.png,0,0.978,19,female ,2020-11-13_13h54.50.423,torte-q,2020.1.3,Win32,60,14120,0.748085,,,,,,,,,,,,,,,,,,,,,,,,,,,,,,,,,,,,,,,,,,,,
,,,,,,,,,,,,a,Correct!,,,,,,t5.png,t5.png,0,0.97829,19,female ,2020-11-13_13h54.50.423,torte-q,2020.1.3,Win32,60,14120,1.28442,space,1.8923,space,26.65036,0,0,0,25,1,,,,,,,,,,,,,,,,,,,,,,,,,,,,,,,,,,,
,,,,,,,,,,,,l,Correct!,,,,,,t5.png,t2.png,3,0.0000131,19,female ,2020-11-13_13h54.50.423,torte-q,2020.1.3,Win32,60,14120,1.214665,,,,,0,1,1,91,1,,,,,,,,,,,,,,,,,,,,,,,,,,,,,,,,,,,
,,,,,,,,,,,,a,Correct!,,,,,,t2.png,t3.png,1,0.90855,19,female ,2020-11-13_13h54.50.423,torte-q,2020.1.3,Win32,60,14120,2.41841,,,,,0,2,2,111,1,,,,,,,,,,,,,,,,,,,,,,,,,,,,,,,,,,,
,,,,,,,,,,,,a,Correct!,,,,,,t2.png,t2.png,0,0.98115,19,female ,2020-11-13_13h54.50.423,torte-q,2020.1.3,Win32,60,14120,0.821505,,,,,0,3,3,7,1,,,,,,,,,,,,,,,,,,,,,,,,,,,,,,,,,,,
,,,,,,,,,,,,a,Incorrect,,,,,,t3.png,t5.png,2,0.0565,19,female ,2020-11-13_13h54.50.423,torte-q,2020.1.3,Win32,60,14120,1.576255,,,,,0,4,4,83,1,,,,,,,,,,,,,,,,,,,,,,,,,,,,,,,,,,,
,,,,,,,,,,,,l,Correct!,,,,,,t4.png,t1.png,3,0.0000131,19,female ,2020-11-13_13h54.50.423,torte-q,2020.1.3,Win32,60,14120,1.534925,,,,,0,5,5,93,1,,,,,,,,,,,,,,,,,,,,,,,,,,,,,,,,,,,
,,,,,,,,,,,,l,Correct!,,,,,,t4.png,t1.png,3,0.0000131,19,female ,2020-11-13_13h54.50.423,torte-q,2020.1.3,Win32,60,14120,1.20597,,,,,0,6,6,61,1,,,,,,,,,,,,,,,,,,,,,,,,,,,,,,,,,,,
,,,,,,,,,,,,a,Correct!,,,,,,t4.png,t3.png,1,0.909,19,female ,2020-11-13_13h54.50.423,torte-q,2020.1.3,Win32,60,14120,1.11921,,,,,0,7,7,46,1,,,,,,,,,,,,,,,,,,,,,,,,,,,,,,,,,,,
,,,,,,,,,,,,a,Correct!,,,,,,t3.png,t4.png,1,0.909,19,female ,2020-11-13_13h54.50.423,torte-q,2020.1.3,Win32,60,14120,2.2022,,,,,0,8,8,106,1,,,,,,,,,,,,,,,,,,,,,,,,,,,,,,,,,,,
,,,,,,,,,,,,l,Incorrect,,,,,,t1.png,t2.png,1,0.90025,19,female ,2020-11-13_13h54.50.423,torte-q,2020.1.3,Win32,60,14120,1.743685,,,,,0,9,9,112,1,,,,,,,,,,,,,,,,,,,,,,,,,,,,,,,,,,,
,,,,,,,,,,,,a,Correct!,,,,,,t1.png,t1.png,0,0.97829,19,female ,2020-11-13_13h54.50.423,torte-q,2020.1.3,Win32,60,14120,0.808195,,,,,0,10,10,9,1,,,,,,,,,,,,,,,,,,,,,,,,,,,,,,,,,,,
,,,,,,,,,,,,l,Incorrect,,,,,,t4.png,t5.png,1,0.9,19,female ,2020-11-13_13h54.50.423,torte-q,2020.1.3,Win32,60,14120,1.71841,,,,,0,11,11,115,1,,,,,,,,,,,,,,,,,,,,,,,,,,,,,,,,,,,
,,,,,,,,,,,,l,Correct!,,,,,,t2.png,t4.png,2,0.0591,19,female ,2020-11-13_13h54.50.423,torte-q,2020.1.3,Win32,60,14120,1.275585,,,,,0,12,12,15,1,,,,,,,,,,,,,,,,,,,,,,,,,,,,,,,,,,,
,,,,,,,,,,,,a,Incorrect,,,,,,t2.png,t3.png,1,0.90855,19,female ,2020-11-13_13h54.50.423,torte-q,2020.1.3,Win32,60,14120,2.036215,,,,,0,13,13,10,1,,,,,,,,,,,,,,,,,,,,,,,,,,,,,,,,,,,
,,,,,,,,,,,,a,Incorrect,,,,,,t2.png,t5.png,3,0.0000131,19,female ,2020-11-13_13h54.50.423,torte-q,2020.1.3,Win32,60,14120,1.784855,,,,,0,14,14,40,1,,,,,,,,,,,,,,,,,,,,,,,,,,,,,,,,,,,
,,,,,,,,,,,,l,Incorrect,,,,,,t3.png,t4.png,1,0.909,19,female ,2020-11-13_13h54.50.423,torte-q,2020.1.3,Win32,60,14120,1.95186,,,,,0,15,15,82,1,,,,,,,,,,,,,,,,,,,,,,,,,,,,,,,,,,,
,,,,,,,,,,,,a,Correct!,,,,,,t1.png,t1.png,0,0.97829,19,female ,2020-11-13_13h54.50.423,torte-q,2020.1.3,Win32,60,14120,0.80652,,,,,0,16,16,67,1,,,,,,,,,,,,,,,,,,,,,,,,,,,,,,,,,,,
,,,,,,,,,,,,a,Incorrect,,,,,,t5.png,t1.png,4,9.55E-11,19,female ,2020-11-13_13h54.50.423,torte-q,2020.1.3,Win32,60,14120,1.93478,,,,,0,17,17,22,1,,,,,,,,,,,,,,,,,,,,,,,,,,,,,,,,,,,
,,,,,,,,,,,,,Too slow :(,,,,,,t3.png,t5.png,2,0.0565,19,female ,2020-11-13_13h54.50.423,torte-q,2020.1.3,Win32,60,14120,,,,,,0,18,18,30,1,,,,,,,,,,,,,,,,,,,,,,,,,,,,,,,,,,,
,,,,,,,,,,,,a,Incorrect,,,,,,t3.png,t4.png,1,0.90855,19,female ,2020-11-13_13h54.50.423,torte-q,2020.1.3,Win32,60,14120,2.06795,,,,,0,19,19,96,1,,,,,,,,,,,,,,,,,,,,,,,,,,,,,,,,,,,
,,,,,,,,,,,,l,Correct!,,,,,,t5.png,t1.png,4,9.55E-11,19,female ,2020-11-13_13h54.50.423,torte-q,2020.1.3,Win32,60,14120,0.95286,,,,,0,20,20,43,1,,,,,,,,,,,,,,,,,,,,,,,,,,,,,,,,,,,
,,,,,,,,,,,,a,Correct!,,,,,,t4.png,t4.png,0,0.98115,19,female ,2020-11-13_13h54.50.423,torte-q,2020.1.3,Win32,60,14120,1.028315,,,,,0,21,21,52,1,,,,,,,,,,,,,,,,,,,,,,,,,,,,,,,,,,,
,,,,,,,,,,,,l,Incorrect,,,,,,t5.png,t4.png,1,0.90025,19,female ,2020-11-13_13h54.50.423,torte-q,2020.1.3,Win32,60,14120,1.95843,,,,,0,22,22,26,1,,,,,,,,,,,,,,,,,,,,,,,,,,,,,,,,,,,
,,,,,,,,,,,,a,Correct!,,,,,,t4.png,t3.png,1,0.90855,19,female ,2020-11-13_13h54.50.423,torte-q,2020.1.3,Win32,60,14120,1.052085,,,,,0,23,23,75,1,,,,,,,,,,,,,,,,,,,,,,,,,,,,,,,,,,,
,,,,,,,,,,,,l,Incorrect,,,,,,t2.png,t1.png,1,0.90025,19,female ,2020-11-13_13h54.50.423,torte-q,2020.1.3,Win32,60,14120,1.235435,,,,,0,24,24,62,1,,,,,,,,,,,,,,,,,,,,,,,,,,,,,,,,,,,
,,,,,,,,,,,,l,Correct!,,,,,,t1.png,t5.png,4,9.55E-11,19,female ,2020-11-13_13h54.50.423,torte-q,2020.1.3,Win32,60,14120,1.611235,,,,,0,25,25,55,1,,,,,,,,,,,,,,,,,,,,,,,,,,,,,,,,,,,
,,,,,,,,,,,,a,Incorrect,,,,,,t5.png,t1.png,4,9.55E-11,19,female ,2020-11-13_13h54.50.423,torte-q,2020.1.3,Win32,60,14120,2.074835,,,,,0,26,26,102,1,,,,,,,,,,,,,,,,,,,,,,,,,,,,,,,,,,,
,,,,,,,,,,,,l,Incorrect,,,,,,t2.png,t1.png,1,0.90025,19,female ,2020-11-13_13h54.50.423,torte-q,2020.1.3,Win32,60,14120,1.33469,,,,,0,27,27,19,1,,,,,,,,,,,,,,,,,,,,,,,,,,,,,,,,,,,
,,,,,,,,,,,,a,Correct!,,,,,,t5.png,t4.png,1,0.9,19,female ,2020-11-13_13h54.50.423,torte-q,2020.1.3,Win32,60,14120,0.95155,,,,,0,28,28,49,1,,,,,,,,,,,,,,,,,,,,,,,,,,,,,,,,,,,
,,,,,,,,,,,,l,Incorrect,,,,,,t1.png,t2.png,1,0.90025,19,female ,2020-11-13_13h54.50.423,torte-q,2020.1.3,Win32,60,14120,0.686315,,,,,0,29,29,33,1,,,,,,,,,,,,,,,,,,,,,,,,,,,,,,,,,,,
,,,,,,,,,,,,l,Incorrect,,,,,,t2.png,t3.png,1,0.90855,19,female ,2020-11-13_13h54.50.423,torte-q,2020.1.3,Win32,60,14120,1.25242,,,,,0,30,30,68,1,,,,,,,,,,,,,,,,,,,,,,,,,,,,,,,,,,,
,,,,,,,,,,,,l,Correct!,,,,,,t1.png,t5.png,4,9.55E-11,19,female ,2020-11-13_13h54.50.423,torte-q,2020.1.3,Win32,60,14120,1.58494,,,,,0,31,31,16,1,,,,,,,,,,,,,,,,,,,,,,,,,,,,,,,,,,,
,,,,,,,,,,,,a,Correct!,,,,,,t4.png,t5.png,1,0.90025,19,female ,2020-11-13_13h54.50.423,torte-q,2020.1.3,Win32,60,14120,1.78489,,,,,0,32,32,103,1,,,,,,,,,,,,,,,,,,,,,,,,,,,,,,,,,,,
,,,,,,,,,,,,a,Incorrect,,,,,,t1.png,t4.png,3,0.0000131,19,female ,2020-11-13_13h54.50.423,torte-q,2020.1.3,Win32,60,14120,1.068865,,,,,0,33,33,81,1,,,,,,,,,,,,,,,,,,,,,,,,,,,,,,,,,,,
,,,,,,,,,,,,a,Correct!,,,,,,t5.png,t5.png,0,0.97829,19,female ,2020-11-13_13h54.50.423,torte-q,2020.1.3,Win32,60,14120,0.8999,,,,,0,34,34,94,1,,,,,,,,,,,,,,,,,,,,,,,,,,,,,,,,,,,
,,,,,,,,,,,,l,Incorrect,,,,,,t2.png,t1.png,1,0.9,19,female ,2020-11-13_13h54.50.423,torte-q,2020.1.3,Win32,60,14120,1.069075,,,,,0,35,35,118,1,,,,,,,,,,,,,,,,,,,,,,,,,,,,,,,,,,,
,,,,,,,,,,,,a,Correct!,,,,,,t3.png,t4.png,1,0.90855,19,female ,2020-11-13_13h54.50.423,torte-q,2020.1.3,Win32,60,14120,1.55357,,,,,0,36,36,84,1,,,,,,,,,,,,,,,,,,,,,,,,,,,,,,,,,,,
,,,,,,,,,,,,a,Correct!,,,,,,t4.png,t3.png,1,0.90855,19,female ,2020-11-13_13h54.50.423,torte-q,2020.1.3,Win32,60,14120,1.551455,,,,,0,37,37,45,1,,,,,,,,,,,,,,,,,,,,,,,,,,,,,,,,,,,
,,,,,,,,,,,,a,Correct!,,,,,,t4.png,t4.png,0,0.98115,19,female ,2020-11-13_13h54.50.423,torte-q,2020.1.3,Win32,60,14120,0.986765,,,,,0,38,38,80,1,,,,,,,,,,,,,,,,,,,,,,,,,,,,,,,,,,,
,,,,,,,,,,,,l,Incorrect,,,,,,t2.png,t2.png,0,0.98115,19,female ,2020-11-13_13h54.50.423,torte-q,2020.1.3,Win32,60,14120,0.73509,,,,,0,39,39,59,1,,,,,,,,,,,,,,,,,,,,,,,,,,,,,,,,,,,
,,,,,,,,,,,,l,Correct!,,,,,,t1.png,t3.png,2,0.056466,19,female ,2020-11-13_13h54.50.423,torte-q,2020.1.3,Win32,60,14120,1.939295,,,,,0,40,40,63,1,,,,,,,,,,,,,,,,,,,,,,,,,,,,,,,,,,,
,,,,,,,,,,,,l,Incorrect,,,,,,t5.png,t4.png,1,0.9,19,female ,2020-11-13_13h54.50.423,torte-q,2020.1.3,Win32,60,14120,1.768235,,,,,0,41,41,76,1,,,,,,,,,,,,,,,,,,,,,,,,,,,,,,,,,,,
,,,,,,,,,,,,a,Correct!,,,,,,t2.png,t2.png,0,0.98115,19,female ,2020-11-13_13h54.50.423,torte-q,2020.1.3,Win32,60,14120,0.951155,,,,,0,42,42,57,1,,,,,,,,,,,,,,,,,,,,,,,,,,,,,,,,,,,
,,,,,,,,,,,,l,Correct!,,,,,,t2.png,t5.png,3,0.0000131,19,female ,2020-11-13_13h54.50.423,torte-q,2020.1.3,Win32,60,14120,1.115855,,,,,0,43,43,104,1,,,,,,,,,,,,,,,,,,,,,,,,,,,,,,,,,,,
,,,,,,,,,,,,a,Incorrect,,,,,,t5.png,t3.png,2,0.056466,19,female ,2020-11-13_13h54.50.423,torte-q,2020.1.3,Win32,60,14120,1.264415,,,,,0,44,44,38,1,,,,,,,,,,,,,,,,,,,,,,,,,,,,,,,,,,,
,,,,,,,,,,,,l,Incorrect,,,,,,t3.png,t1.png,2,0.056466,19,female ,2020-11-13_13h54.50.423,torte-q,2020.1.3,Win32,60,14120,1.175235,,,,,0,45,45,29,1,,,,,,,,,,,,,,,,,,,,,,,,,,,,,,,,,,,
,,,,,,,,,,,,l,Correct!,,,,,,t4.png,t1.png,3,0.0000131,19,female ,2020-11-13_13h54.50.423,torte-q,2020.1.3,Win32,60,14120,0.519785,,,,,0,46,46,42,1,,,,,,,,,,,,,,,,,,,,,,,,,,,,,,,,,,,
,,,,,,,,,,,,a,Incorrect,,,,,,t5.png,t2.png,3,0.0000131,19,female ,2020-11-13_13h54.50.423,torte-q,2020.1.3,Win32,60,14120,1.29883,,,,,0,47,47,116,1,,,,,,,,,,,,,,,,,,,,,,,,,,,,,,,,,,,
,,,,,,,,,,,,a,Correct!,,,,,,t5.png,t5.png,0,0.97829,19,female ,2020-11-13_13h54.50.423,torte-q,2020.1.3,Win32,60,14120,0.89903,,,,,0,48,48,70,1,,,,,,,,,,,,,,,,,,,,,,,,,,,,,,,,,,,
,,,,,,,,,,,,l,Incorrect,,,,,,t4.png,t5.png,1,0.90025,19,female ,2020-11-13_13h54.50.423,torte-q,2020.1.3,Win32,60,14120,1.647365,,,,,0,49,49,58,1,,,,,,,,,,,,,,,,,,,,,,,,,,,,,,,,,,,
,,,,,,,,,,,,l,Correct!,,,,,,t2.png,t4.png,2,0.059078,19,female ,2020-11-13_13h54.50.423,torte-q,2020.1.3,Win32,60,14120,1.45041,,,,,0,50,50,11,1,,,,,,,,,,,,,,,,,,,,,,,,,,,,,,,,,,,
,,,,,,,,,,,,l,Correct!,,,,,,t1.png,t5.png,4,9.55E-11,19,female ,2020-11-13_13h54.50.423,torte-q,2020.1.3,Win32,60,14120,1.381875,,,,,0,51,51,85,1,,,,,,,,,,,,,,,,,,,,,,,,,,,,,,,,,,,
,,,,,,,,,,,,l,Correct!,,,,,,t3.png,t1.png,2,0.0565,19,female ,2020-11-13_13h54.50.423,torte-q,2020.1.3,Win32,60,14120,0.88748,,,,,0,52,52,31,1,,,,,,,,,,,,,,,,,,,,,,,,,,,,,,,,,,,
,,,,,,,,,,,,l,Correct!,,,,,,t3.png,t1.png,2,0.056466,19,female ,2020-11-13_13h54.50.423,torte-q,2020.1.3,Win32,60,14120,0.56972,,,,,0,53,53,0,1,,,,,,,,,,,,,,,,,,,,,,,,,,,,,,,,,,,
,,,,,,,,,,,,a,Incorrect,,,,,,t5.png,t2.png,3,0.0000131,19,female ,2020-11-13_13h54.50.423,torte-q,2020.1.3,Win32,60,14120,1.015315,,,,,0,54,54,98,1,,,,,,,,,,,,,,,,,,,,,,,,,,,,,,,,,,,
,,,,,,,,,,,,l,Correct!,,,,,,t1.png,t5.png,4,9.55E-11,19,female ,2020-11-13_13h54.50.423,torte-q,2020.1.3,Win32,60,14120,1.18417,,,,,0,55,55,41,1,,,,,,,,,,,,,,,,,,,,,,,,,,,,,,,,,,,
,,,,,,,,,,,,a,Incorrect,,,,,,t4.png,t2.png,2,0.059078,19,female ,2020-11-13_13h54.50.423,torte-q,2020.1.3,Win32,60,14120,1.09919,,,,,0,56,56,88,1,,,,,,,,,,,,,,,,,,,,,,,,,,,,,,,,,,,
,,,,,,,,,,,,l,Incorrect,,,,,,t3.png,t2.png,1,0.909,19,female ,2020-11-13_13h54.50.423,torte-q,2020.1.3,Win32,60,14120,2.047445,,,,,0,57,57,3,1,,,,,,,,,,,,,,,,,,,,,,,,,,,,,,,,,,,
,,,,,,,,,,,,l,Correct!,,,,,,t1.png,t4.png,3,0.0000131,19,female ,2020-11-13_13h54.50.423,torte-q,2020.1.3,Win32,60,14120,1.064255,,,,,0,58,58,107,1,,,,,,,,,,,,,,,,,,,,,,,,,,,,,,,,,,,
,,,,,,,,,,,,a,Correct!,,,,,,t5.png,t5.png,0,0.978,19,female ,2020-11-13_13h54.50.423,torte-q,2020.1.3,Win32,60,14120,0.683045,,,,,0,59,59,117,1,,,,,,,,,,,,,,,,,,,,,,,,,,,,,,,,,,,
,,,,,,,,,,,,l,Correct!,,,,,,t2.png,t4.png,2,0.059078,19,female ,2020-11-13_13h54.50.423,torte-q,2020.1.3,Win32,60,14120,1.181985,,,,,0,60,60,37,1,,,,,,,,,,,,,,,,,,,,,,,,,,,,,,,,,,,
,,,,,,,,,,,,l,Correct!,,,,,,t4.png,t2.png,2,0.0591,19,female ,2020-11-13_13h54.50.423,torte-q,2020.1.3,Win32,60,14120,1.152425,,,,,0,61,61,36,1,,,,,,,,,,,,,,,,,,,,,,,,,,,,,,,,,,,
,,,,,,,,,,,,a,Incorrect,,,,,,t5.png,t3.png,2,0.056466,19,female ,2020-11-13_13h54.50.423,torte-q,2020.1.3,Win32,60,14120,1.230805,,,,,0,62,62,108,1,,,,,,,,,,,,,,,,,,,,,,,,,,,,,,,,,,,
,,,,,,,,,,,,a,Correct!,,,,,,t4.png,t5.png,1,0.90025,19,female ,2020-11-13_13h54.50.423,torte-q,2020.1.3,Win32,60,14120,2.16951,,,,,0,63,63,47,1,,,,,,,,,,,,,,,,,,,,,,,,,,,,,,,,,,,
,,,,,,,,,,,,a,Correct!,,,,,,t3.png,t2.png,1,0.909,19,female ,2020-11-13_13h54.50.423,torte-q,2020.1.3,Win32,60,14120,2.2523,,,,,0,64,64,23,1,,,,,,,,,,,,,,,,,,,,,,,,,,,,,,,,,,,
,,,,,,,,,,,,a,Correct!,,,,,,t4.png,t4.png,0,0.98115,19,female ,2020-11-13_13h54.50.423,torte-q,2020.1.3,Win32,60,14120,0.99816,,,,,0,65,65,79,1,,,,,,,,,,,,,,,,,,,,,,,,,,,,,,,,,,,
,,,,,,,,,,,,l,Correct!,,,,,,t3.png,t1.png,2,0.056466,19,female ,2020-11-13_13h54.50.423,torte-q,2020.1.3,Win32,60,14120,0.81427,,,,,0,66,66,32,1,,,,,,,,,,,,,,,,,,,,,,,,,,,,,,,,,,,
,,,,,,,,,,,,a,Correct!,,,,,,t1.png,t1.png,0,0.978,19,female ,2020-11-13_13h54.50.423,torte-q,2020.1.3,Win32,60,14120,0.883655,,,,,0,67,67,28,1,,,,,,,,,,,,,,,,,,,,,,,,,,,,,,,,,,,
,,,,,,,,,,,,a,Incorrect,,,,,,t1.png,t4.png,3,0.0000131,19,female ,2020-11-13_13h54.50.423,torte-q,2020.1.3,Win32,60,14120,0.89723,,,,,0,68,68,50,1,,,,,,,,,,,,,,,,,,,,,,,,,,,,,,,,,,,
,,,,,,,,,,,,l,Correct!,,,,,,t2.png,t4.png,2,0.059078,19,female ,2020-11-13_13h54.50.423,torte-q,2020.1.3,Win32,60,14120,1.58046,,,,,0,69,69,77,1,,,,,,,,,,,,,,,,,,,,,,,,,,,,,,,,,,,
,,,,,,,,,,,,a,Incorrect,,,,,,t1.png,t3.png,2,0.056466,19,female ,2020-11-13_13h54.50.423,torte-q,2020.1.3,Win32,60,14120,1.167905,,,,,0,70,70,99,1,,,,,,,,,,,,,,,,,,,,,,,,,,,,,,,,,,,
,,,,,,,,,,,,l,Incorrect,,,,,,t3.png,t2.png,1,0.90855,19,female ,2020-11-13_13h54.50.423,torte-q,2020.1.3,Win32,60,14120,1.334955,,,,,0,71,71,53,1,,,,,,,,,,,,,,,,,,,,,,,,,,,,,,,,,,,
,,,,,,,,,,,,a,Correct!,,,,,,t2.png,t3.png,1,0.909,19,female ,2020-11-13_13h54.50.423,torte-q,2020.1.3,Win32,60,14120,0.977305,,,,,0,72,72,74,1,,,,,,,,,,,,,,,,,,,,,,,,,,,,,,,,,,,
,,,,,,,,,,,,a,Correct!,,,,,,t1.png,t1.png,0,0.978,19,female ,2020-11-13_13h54.50.423,torte-q,2020.1.3,Win32,60,14120,1.668035,,,,,0,73,73,54,1,,,,,,,,,,,,,,,,,,,,,,,,,,,,,,,,,,,
,,,,,,,,,,,,l,Correct!,,,,,,t5.png,t1.png,4,9.55E-11,19,female ,2020-11-13_13h54.50.423,torte-q,2020.1.3,Win32,60,14120,1.25158,,,,,0,74,74,71,1,,,,,,,,,,,,,,,,,,,,,,,,,,,,,,,,,,,
,,,,,,,,,,,,l,Correct!,,,,,,t1.png,t5.png,4,9.55E-11,19,female ,2020-11-13_13h54.50.423,torte-q,2020.1.3,Win32,60,14120,1.568025,,,,,0,75,75,12,1,,,,,,,,,,,,,,,,,,,,,,,,,,,,,,,,,,,
,,,,,,,,,,,,a,Correct!,,,,,,t5.png,t5.png,0,0.97829,19,female ,2020-11-13_13h54.50.423,torte-q,2020.1.3,Win32,60,14120,0.901485,,,,,0,76,76,73,1,,,,,,,,,,,,,,,,,,,,,,,,,,,,,,,,,,,
,,,,,,,,,,,,l,Correct!,,,,,,t5.png,t2.png,3,0.0000131,19,female ,2020-11-13_13h54.50.423,torte-q,2020.1.3,Win32,60,14120,1.42436,,,,,0,77,77,51,1,,,,,,,,,,,,,,,,,,,,,,,,,,,,,,,,,,,
,,,,,,,,,,,,a,Correct!,,,,,,t4.png,t3.png,1,0.909,19,female ,2020-11-13_13h54.50.423,torte-q,2020.1.3,Win32,60,14120,1.48635,,,,,0,78,78,20,1,,,,,,,,,,,,,,,,,,,,,,,,,,,,,,,,,,,
,,,,,,,,,,,,a,Incorrect,,,,,,t2.png,t5.png,3,0.0000131,19,female ,2020-11-13_13h54.50.423,torte-q,2020.1.3,Win32,60,14120,2.41834,,,,,0,79,79,66,1,,,,,,,,,,,,,,,,,,,,,,,,,,,,,,,,,,,
,,,,,,,,,,,,a,Correct!,,,,,,t4.png,t4.png,0,0.98115,19,female ,2020-11-13_13h54.50.423,torte-q,2020.1.3,Win32,60,14120,0.835365,,,,,0,80,80,21,1,,,,,,,,,,,,,,,,,,,,,,,,,,,,,,,,,,,
,,,,,,,,,,,,l,Incorrect,,,,,,t2.png,t2.png,0,0.981,19,female ,2020-11-13_13h54.50.423,torte-q,2020.1.3,Win32,60,14120,0.751495,,,,,0,81,81,101,1,,,,,,,,,,,,,,,,,,,,,,,,,,,,,,,,,,,
,,,,,,,,,,,,l,Correct!,,,,,,t2.png,t5.png,3,0.0000131,19,female ,2020-11-13_13h54.50.423,torte-q,2020.1.3,Win32,60,14120,1.934785,,,,,0,82,82,95,1,,,,,,,,,,,,,,,,,,,,,,,,,,,,,,,,,,,
,,,,,,,,,,,,a,Incorrect,,,,,,t5.png,t2.png,3,0.0000131,19,female ,2020-11-13_13h54.50.423,torte-q,2020.1.3,Win32,60,14120,2.208585,,,,,0,83,83,119,1,,,,,,,,,,,,,,,,,,,,,,,,,,,,,,,,,,,
,,,,,,,,,,,,l,Correct!,,,,,,t3.png,t5.png,2,0.056466,19,female ,2020-11-13_13h54.50.423,torte-q,2020.1.3,Win32,60,14120,1.452575,,,,,0,84,84,44,1,,,,,,,,,,,,,,,,,,,,,,,,,,,,,,,,,,,
,,,,,,,,,,,,a,Incorrect,,,,,,t5.png,t3.png,2,0.056466,19,female ,2020-11-13_13h54.50.423,torte-q,2020.1.3,Win32,60,14120,1.453885,,,,,0,85,85,114,1,,,,,,,,,,,,,,,,,,,,,,,,,,,,,,,,,,,
,,,,,,,,,,,,l,Incorrect,,,,,,t4.png,t2.png,2,0.059078,19,female ,2020-11-13_13h54.50.423,torte-q,2020.1.3,Win32,60,14120,1.75163,,,,,0,86,86,86,1,,,,,,,,,,,,,,,,,,,,,,,,,,,,,,,,,,,
,,,,,,,,,,,,a,Incorrect,,,,,,t3.png,t5.png,2,0.056466,19,female ,2020-11-13_13h54.50.423,torte-q,2020.1.3,Win32,60,14120,1.14738,,,,,0,87,87,14,1,,,,,,,,,,,,,,,,,,,,,,,,,,,,,,,,,,,
,,,,,,,,,,,,l,Correct!,,,,,,t2.png,t4.png,2,0.059078,19,female ,2020-11-13_13h54.50.423,torte-q,2020.1.3,Win32,60,14120,1.08326,,,,,0,88,88,24,1,,,,,,,,,,,,,,,,,,,,,,,,,,,,,,,,,,,
,,,,,,,,,,,,a,Correct!,,,,,,t3.png,t4.png,1,0.909,19,female ,2020-11-13_13h54.50.423,torte-q,2020.1.3,Win32,60,14120,1.15138,,,,,0,89,89,89,1,,,,,,,,,,,,,,,,,,,,,,,,,,,,,,,,,,,
,,,,,,,,,,,,a,Incorrect,,,,,,t1.png,t3.png,2,0.056466,19,female ,2020-11-13_13h54.50.423,torte-q,2020.1.3,Win32,60,14120,2.015135,,,,,0,90,90,69,1,,,,,,,,,,,,,,,,,,,,,,,,,,,,,,,,,,,
,,,,,,,,,,,,l,Incorrect,,,,,,t4.png,t3.png,1,0.90855,19,female ,2020-11-13_13h54.50.423,torte-q,2020.1.3,Win32,60,14120,1.408615,,,,,0,91,91,35,1,,,,,,,,,,,,,,,,,,,,,,,,,,,,,,,,,,,
,,,,,,,,,,,,l,Incorrect,,,,,,t3.png,t2.png,1,0.90855,19,female ,2020-11-13_13h54.50.423,torte-q,2020.1.3,Win32,60,14120,1.21512,,,,,0,92,92,18,1,,,,,,,,,,,,,,,,,,,,,,,,,,,,,,,,,,,
,,,,,,,,,,,,a,Incorrect,,,,,,t1.png,t2.png,1,0.90025,19,female ,2020-11-13_13h54.50.423,torte-q,2020.1.3,Win32,60,14120,2.107475,,,,,0,93,93,105,1,,,,,,,,,,,,,,,,,,,,,,,,,,,,,,,,,,,
,,,,,,,,,,,,l,Correct!,,,,,,t1.png,t3.png,2,0.056466,19,female ,2020-11-13_13h54.50.423,torte-q,2020.1.3,Win32,60,14120,0.780405,,,,,0,94,94,60,1,,,,,,,,,,,,,,,,,,,,,,,,,,,,,,,,,,,
,,,,,,,,,,,,l,Correct!,,,,,,t1.png,t4.png,3,0.0000131,19,female ,2020-11-13_13h54.50.423,torte-q,2020.1.3,Win32,60,14120,1.001905,,,,,0,95,95,17,1,,,,,,,,,,,,,,,,,,,,,,,,,,,,,,,,,,,
,,,,,,,,,,,,l,Correct!,,,,,,t2.png,t5.png,3,0.0000131,19,female ,2020-11-13_13h54.50.423,torte-q,2020.1.3,Win32,60,14120,0.47223,,,,,0,96,96,8,1,,,,,,,,,,,,,,,,,,,,,,,,,,,,,,,,,,,
,,,,,,,,,,,,a,Correct!,,,,,,t1.png,t1.png,0,0.97829,19,female ,2020-11-13_13h54.50.423,torte-q,2020.1.3,Win32,60,14120,0.84298,,,,,0,97,97,78,1,,,,,,,,,,,,,,,,,,,,,,,,,,,,,,,,,,,
,,,,,,,,,,,,l,Correct!,,,,,,t1.png,t3.png,2,0.056466,19,female ,2020-11-13_13h54.50.423,torte-q,2020.1.3,Win32,60,14120,1.08676,,,,,0,98,98,87,1,,,,,,,,,,,,,,,,,,,,,,,,,,,,,,,,,,,
,,,,,,,,,,,,l,Incorrect,,,,,,t1.png,t2.png,1,0.9,19,female ,2020-11-13_13h54.50.423,torte-q,2020.1.3,Win32,60,14120,1.4179,,,,,0,99,99,1,1,,,,,,,,,,,,,,,,,,,,,,,,,,,,,,,,,,,
,,,,,,,,,,,,l,Correct!,,,,,,t1.png,t4.png,3,0.0000131,19,female ,2020-11-13_13h54.50.423,torte-q,2020.1.3,Win32,60,14120,0.809165,,,,,0,100,100,92,1,,,,,,,,,,,,,,,,,,,,,,,,,,,,,,,,,,,
,,,,,,,,,,,,a,Incorrect,,,,,,t4.png,t1.png,3,0.0000131,19,female ,2020-11-13_13h54.50.423,torte-q,2020.1.3,Win32,60,14120,1.4017,,,,,0,101,101,13,1,,,,,,,,,,,,,,,,,,,,,,,,,,,,,,,,,,,
,,,,,,,,,,,,l,Correct!,,,,,,t3.png,t5.png,2,0.056466,19,female ,2020-11-13_13h54.50.423,torte-q,2020.1.3,Win32,60,14120,1.33546,,,,,0,102,102,6,1,,,,,,,,,,,,,,,,,,,,,,,,,,,,,,,,,,,
,,,,,,,,,,,,a,Incorrect,,,,,,t5.png,t3.png,2,0.0565,19,female ,2020-11-13_13h54.50.423,torte-q,2020.1.3,Win32,60,14120,1.6271,,,,,0,103,103,39,1,,,,,,,,,,,,,,,,,,,,,,,,,,,,,,,,,,,
,,,,,,,,,,,,l,Incorrect,,,,,,t2.png,t1.png,1,0.90025,19,female ,2020-11-13_13h54.50.423,torte-q,2020.1.3,Win32,60,14120,1.260455,,,,,0,104,104,5,1,,,,,,,,,,,,,,,,,,,,,,,,,,,,,,,,,,,
,,,,,,,,,,,,l,Incorrect,,,,,,t1.png,t2.png,1,0.90025,19,female ,2020-11-13_13h54.50.423,torte-q,2020.1.3,Win32,60,14120,1.28569,,,,,0,105,105,72,1,,,,,,,,,,,,,,,,,,,,,,,,,,,,,,,,,,,
,,,,,,,,,,,,l,Correct!,,,,,,t4.png,t1.png,3,0.0000131,19,female ,2020-11-13_13h54.50.423,torte-q,2020.1.3,Win32,60,14120,0.820035,,,,,0,106,106,48,1,,,,,,,,,,,,,,,,,,,,,,,,,,,,,,,,,,,
,,,,,,,,,,,,l,Incorrect,,,,,,t2.png,t1.png,1,0.90025,19,female ,2020-11-13_13h54.50.423,torte-q,2020.1.3,Win32,60,14120,1.151505,,,,,0,107,107,4,1,,,,,,,,,,,,,,,,,,,,,,,,,,,,,,,,,,,
,,,,,,,,,,,,l,Incorrect,,,,,,t4.png,t5.png,1,0.90025,19,female ,2020-11-13_13h54.50.423,torte-q,2020.1.3,Win32,60,14120,1.96797,,,,,0,108,108,113,1,,,,,,,,,,,,,,,,,,,,,,,,,,,,,,,,,,,
,,,,,,,,,,,,l,Incorrect,,,,,,t2.png,t3.png,1,0.90855,19,female ,2020-11-13_13h54.50.423,torte-q,2020.1.3,Win32,60,14120,0.96794,,,,,0,109,109,65,1,,,,,,,,,,,,,,,,,,,,,,,,,,,,,,,,,,,
,,,,,,,,,,,,a,Incorrect,,,,,,t5.png,t3.png,2,0.056466,19,female ,2020-11-13_13h54.50.423,torte-q,2020.1.3,Win32,60,14120,0.82049,,,,,0,110,110,56,1,,,,,,,,,,,,,,,,,,,,,,,,,,,,,,,,,,,
,,,,,,,,,,,,l,Incorrect,,,,,,t4.png,t2.png,2,0.059078,19,female ,2020-11-13_13h54.50.423,torte-q,2020.1.3,Win32,60,14120,1.2164,,,,,0,111,111,110,1,,,,,,,,,,,,,,,,,,,,,,,,,,,,,,,,,,,
,,,,,,,,,,,,a,Correct!,,,,,,t2.png,t2.png,0,0.98115,19,female ,2020-11-13_13h54.50.423,torte-q,2020.1.3,Win32,60,14120,0.93544,,,,,0,112,112,2,1,,,,,,,,,,,,,,,,,,,,,,,,,,,,,,,,,,,
,,,,,,,,,,,,l,Correct!,,,,,,t3.png,t1.png,2,0.056466,19,female ,2020-11-13_13h54.50.423,torte-q,2020.1.3,Win32,60,14120,1.084915,,,,,0,113,113,64,1,,,,,,,,,,,,,,,,,,,,,,,,,,,,,,,,,,,
,,,,,,,,,,,,a,Correct!,,,,,,t4.png,t4.png,0,0.98115,19,female ,2020-11-13_13h54.50.423,torte-q,2020.1.3,Win32,60,14120,1.001545,,,,,0,114,114,90,1,,,,,,,,,,,,,,,,,,,,,,,,,,,,,,,,,,,
,,,,,,,,,,,,l,Incorrect,,,,,,t5.png,t4.png,1,0.90025,19,female ,2020-11-13_13h54.50.423,torte-q,2020.1.3,Win32,60,14120,2.25127,,,,,0,115,115,27,1,,,,,,,,,,,,,,,,,,,,,,,,,,,,,,,,,,,
,,,,,,,,,,,,l,Correct!,,,,,,t4.png,t2.png,2,0.059078,19,female ,2020-11-13_13h54.50.423,torte-q,2020.1.3,Win32,60,14120,1.092,,,,,0,116,116,109,1,,,,,,,,,,,,,,,,,,,,,,,,,,,,,,,,,,,
,,,,,,,,,,,,l,Correct!,,,,,,t5.png,t4.png,1,0.90025,19,female ,2020-11-13_13h54.50.423,torte-q,2020.1.3,Win32,60,14120,1.858965,,,,,0,117,117,34,1,,,,,,,,,,,,,,,,,,,,,,,,,,,,,,,,,,,
,,,,,,,,,,,,a,Correct!,,,,,,t3.png,t2.png,1,0.90855,19,female ,2020-11-13_13h54.50.423,torte-q,2020.1.3,Win32,60,14120,1.30193,,,,,0,118,118,97,1,,,,,,,,,,,,,,,,,,,,,,,,,,,,,,,,,,,
,,,,,,,,,,,,l,Correct!,,,,,,t5.png,t1.png,4,9.55E-11,19,female ,2020-11-13_13h54.50.423,torte-q,2020.1.3,Win32,60,14120,1.036835,,,,,0,119,119,100,1,,,,,,,,,,,,,,,,,,,,,,,,,,,,,,,,,,,
,,,,,,,,,,,,l,Incorrect,,,,,,t2.png,t3.png,1,0.909,19,female ,2020-11-13_13h54.50.423,torte-q,2020.1.3,Win32,60,14120,1.614985,space,7.028355,,,,,,,,space,15.283415,space,5.13413,0,0,0,74,1,,,,,,,,,,,,,,,,,,,,,,,,,,
,,,,,,,,,,,,a,Correct!,,,,,,t5.png,t4.png,1,0.90025,19,female ,2020-11-13_13h54.50.423,torte-q,2020.1.3,Win32,60,14120,0.83122,,,,,,,,,,,,,,0,1,1,34,1,,,,,,,,,,,,,,,,,,,,,,,,,,
,,,,,,,,,,,,a,Correct!,,,,,,t3.png,t4.png,1,0.90855,19,female ,2020-11-13_13h54.50.423,torte-q,2020.1.3,Win32,60,14120,2.102485,,,,,,,,,,,,,,0,2,2,96,1,,,,,,,,,,,,,,,,,,,,,,,,,,
,,,,,,,,,,,,l,Correct!,,,,,,t4.png,t2.png,2,0.0591,19,female ,2020-11-13_13h54.50.423,torte-q,2020.1.3,Win32,60,14120,1.28468,,,,,,,,,,,,,,0,3,3,36,1,,,,,,,,,,,,,,,,,,,,,,,,,,
,,,,,,,,,,,,l,Correct!,,,,,,t2.png,t4.png,2,0.0591,19,female ,2020-11-13_13h54.50.423,torte-q,2020.1.3,Win32,60,14120,1.64225,,,,,,,,,,,,,,0,4,4,15,1,,,,,,,,,,,,,,,,,,,,,,,,,,
,,,,,,,,,,,,l,Correct!,,,,,,t1.png,t3.png,2,0.056466,19,female ,2020-11-13_13h54.50.423,torte-q,2020.1.3,Win32,60,14120,1.440035,,,,,,,,,,,,,,0,5,5,99,1,,,,,,,,,,,,,,,,,,,,,,,,,,
,,,,,,,,,,,,a,Incorrect,,,,,,t2.png,t5.png,3,0.0000131,19,female ,2020-11-13_13h54.50.423,torte-q,2020.1.3,Win32,60,14120,1.252445,,,,,,,,,,,,,,0,6,6,40,1,,,,,,,,,,,,,,,,,,,,,,,,,,
,,,,,,,,,,,,l,Incorrect,,,,,,t3.png,t2.png,1,0.909,19,female ,2020-11-13_13h54.50.423,torte-q,2020.1.3,Win32,60,14120,1.758435,,,,,,,,,,,,,,0,7,7,3,1,,,,,,,,,,,,,,,,,,,,,,,,,,
,,,,,,,,,,,,a,Correct!,,,,,,t5.png,t5.png,0,0.97829,19,female ,2020-11-13_13h54.50.423,torte-q,2020.1.3,Win32,60,14120,1.10727,,,,,,,,,,,,,,0,8,8,25,1,,,,,,,,,,,,,,,,,,,,,,,,,,
,,,,,,,,,,,,a,Incorrect,,,,,,t5.png,t2.png,3,0.0000131,19,female ,2020-11-13_13h54.50.423,torte-q,2020.1.3,Win32,60,14120,1.36831,,,,,,,,,,,,,,0,9,9,116,1,,,,,,,,,,,,,,,,,,,,,,,,,,
,,,,,,,,,,,,l,Correct!,,,,,,t4.png,t1.png,3,0.0000131,19,female ,2020-11-13_13h54.50.423,torte-q,2020.1.3,Win32,60,14120,0.99502,,,,,,,,,,,,,,0,10,10,93,1,,,,,,,,,,,,,,,,,,,,,,,,,,
,,,,,,,,,,,,l,Incorrect,,,,,,t1.png,t2.png,1,0.90025,19,female ,2020-11-13_13h54.50.423,torte-q,2020.1.3,Win32,60,14120,1.21852,,,,,,,,,,,,,,0,11,11,33,1,,,,,,,,,,,,,,,,,,,,,,,,,,
,,,,,,,,,,,,l,Incorrect,,,,,,t4.png,t5.png,1,0.90025,19,female ,2020-11-13_13h54.50.423,torte-q,2020.1.3,Win32,60,14120,1.718525,,,,,,,,,,,,,,0,12,12,58,1,,,,,,,,,,,,,,,,,,,,,,,,,,
,,,,,,,,,,,,a,Incorrect,,,,,,t5.png,t2.png,3,0.0000131,19,female ,2020-11-13_13h54.50.423,torte-q,2020.1.3,Win32,60,14120,1.76168,,,,,,,,,,,,,,0,13,13,119,1,,,,,,,,,,,,,,,,,,,,,,,,,,
,,,,,,,,,,,,a,Correct!,,,,,,t2.png,t2.png,0,0.981,19,female ,2020-11-13_13h54.50.423,torte-q,2020.1.3,Win32,60,14120,1.20783,,,,,,,,,,,,,,0,14,14,101,1,,,,,,,,,,,,,,,,,,,,,,,,,,
,,,,,,,,,,,,a,Correct!,,,,,,t3.png,t4.png,1,0.909,19,female ,2020-11-13_13h54.50.423,torte-q,2020.1.3,Win32,60,14120,2.030435,,,,,,,,,,,,,,0,15,15,89,1,,,,,,,,,,,,,,,,,,,,,,,,,,
,,,,,,,,,,,,l,Correct!,,,,,,t1.png,t5.png,4,9.55E-11,19,female ,2020-11-13_13h54.50.423,torte-q,2020.1.3,Win32,60,14120,1.38137,,,,,,,,,,,,,,0,16,16,85,1,,,,,,,,,,,,,,,,,,,,,,,,,,
,,,,,,,,,,,,a,Correct!,,,,,,t4.png,t4.png,0,0.98115,19,female ,2020-11-13_13h54.50.423,torte-q,2020.1.3,Win32,60,14120,1.31408,,,,,,,,,,,,,,0,17,17,79,1,,,,,,,,,,,,,,,,,,,,,,,,,,
,,,,,,,,,,,,l,Correct!,,,,,,t1.png,t3.png,2,0.056466,19,female ,2020-11-13_13h54.50.423,torte-q,2020.1.3,Win32,60,14120,1.39908,,,,,,,,,,,,,,0,18,18,63,1,,,,,,,,,,,,,,,,,,,,,,,,,,
,,,,,,,,,,,,a,Correct!,,,,,,t2.png,t2.png,0,0.98115,19,female ,2020-11-13_13h54.50.423,torte-q,2020.1.3,Win32,60,14120,1.13063,,,,,,,,,,,,,,0,19,19,2,1,,,,,,,,,,,,,,,,,,,,,,,,,,
,,,,,,,,,,,,a,Correct!,,,,,,t2.png,t2.png,0,0.98115,19,female ,2020-11-13_13h54.50.423,torte-q,2020.1.3,Win32,60,14120,0.748965,,,,,,,,,,,,,,0,20,20,59,1,,,,,,,,,,,,,,,,,,,,,,,,,,
,,,,,,,,,,,,a,Correct!,,,,,,t1.png,t1.png,0,0.97829,19,female ,2020-11-13_13h54.50.423,torte-q,2020.1.3,Win32,60,14120,0.64839,,,,,,,,,,,,,,0,21,21,9,1,,,,,,,,,,,,,,,,,,,,,,,,,,
,,,,,,,,,,,,l,Correct!,,,,,,t5.png,t3.png,2,0.056466,19,female ,2020-11-13_13h54.50.423,torte-q,2020.1.3,Win32,60,14120,1.06401,,,,,,,,,,,,,,0,22,22,56,1,,,,,,,,,,,,,,,,,,,,,,,,,,
,,,,,,,,,,,,l,Correct!,,,,,,t1.png,t3.png,2,0.056466,19,female ,2020-11-13_13h54.50.423,torte-q,2020.1.3,Win32,60,14120,1.08532,,,,,,,,,,,,,,0,23,23,69,1,,,,,,,,,,,,,,,,,,,,,,,,,,
,,,,,,,,,,,,l,Correct!,,,,,,t5.png,t1.png,4,9.55E-11,19,female ,2020-11-13_13h54.50.423,torte-q,2020.1.3,Win32,60,14120,1.014355,,,,,,,,,,,,,,0,24,24,102,1,,,,,,,,,,,,,,,,,,,,,,,,,,
,,,,,,,,,,,,a,Correct!,,,,,,t1.png,t1.png,0,0.978,19,female ,2020-11-13_13h54.50.423,torte-q,2020.1.3,Win32,60,14120,0.77978,,,,,,,,,,,,,,0,25,25,54,1,,,,,,,,,,,,,,,,,,,,,,,,,,
,,,,,,,,,,,,l,Correct!,,,,,,t4.png,t5.png,1,0.90025,19,female ,2020-11-13_13h54.50.423,torte-q,2020.1.3,Win32,60,14120,1.28479,,,,,,,,,,,,,,0,26,26,103,1,,,,,,,,,,,,,,,,,,,,,,,,,,
,,,,,,,,,,,,l,Correct!,,,,,,t1.png,t4.png,3,0.0000131,19,female ,2020-11-13_13h54.50.423,torte-q,2020.1.3,Win32,60,14120,1.347095,,,,,,,,,,,,,,0,27,27,50,1,,,,,,,,,,,,,,,,,,,,,,,,,,
,,,,,,,,,,,,a,Correct!,,,,,,t4.png,t3.png,1,0.909,19,female ,2020-11-13_13h54.50.423,torte-q,2020.1.3,Win32,60,14120,1.364515,,,,,,,,,,,,,,0,28,28,20,1,,,,,,,,,,,,,,,,,,,,,,,,,,
,,,,,,,,,,,,l,Incorrect,,,,,,t4.png,t5.png,1,0.9,19,female ,2020-11-13_13h54.50.423,torte-q,2020.1.3,Win32,60,14120,1.09915,,,,,,,,,,,,,,0,29,29,115,1,,,,,,,,,,,,,,,,,,,,,,,,,,
,,,,,,,,,,,,a,Incorrect,,,,,,t5.png,t4.png,1,0.90025,19,female ,2020-11-13_13h54.50.423,torte-q,2020.1.3,Win32,60,14120,1.05041,,,,,,,,,,,,,,0,30,30,27,1,,,,,,,,,,,,,,,,,,,,,,,,,,
,,,,,,,,,,,,l,Correct!,,,,,,t4.png,t1.png,3,0.0000131,19,female ,2020-11-13_13h54.50.423,torte-q,2020.1.3,Win32,60,14120,1.00867,,,,,,,,,,,,,,0,31,31,42,1,,,,,,,,,,,,,,,,,,,,,,,,,,
,,,,,,,,,,,,l,Incorrect,,,,,,t1.png,t2.png,1,0.9,19,female ,2020-11-13_13h54.50.423,torte-q,2020.1.3,Win32,60,14120,1.19151,,,,,,,,,,,,,,0,32,32,1,1,,,,,,,,,,,,,,,,,,,,,,,,,,
,,,,,,,,,,,,l,Correct!,,,,,,t4.png,t2.png,2,0.059078,19,female ,2020-11-13_13h54.50.423,torte-q,2020.1.3,Win32,60,14120,1.617425,,,,,,,,,,,,,,0,33,33,109,1,,,,,,,,,,,,,,,,,,,,,,,,,,
,,,,,,,,,,,,a,Correct!,,,,,,t5.png,t4.png,1,0.9,19,female ,2020-11-13_13h54.50.423,torte-q,2020.1.3,Win32,60,14120,2.41456,,,,,,,,,,,,,,0,34,34,76,1,,,,,,,,,,,,,,,,,,,,,,,,,,
,,,,,,,,,,,,l,Correct!,,,,,,t3.png,t5.png,2,0.056466,19,female ,2020-11-13_13h54.50.423,torte-q,2020.1.3,Win32,60,14120,1.279975,,,,,,,,,,,,,,0,35,35,44,1,,,,,,,,,,,,,,,,,,,,,,,,,,
,,,,,,,,,,,,a,Correct!,,,,,,t5.png,t5.png,0,0.97829,19,female ,2020-11-13_13h54.50.423,torte-q,2020.1.3,Win32,60,14120,0.98843,,,,,,,,,,,,,,0,36,36,73,1,,,,,,,,,,,,,,,,,,,,,,,,,,
,,,,,,,,,,,,a,Correct!,,,,,,t1.png,t1.png,0,0.978,19,female ,2020-11-13_13h54.50.423,torte-q,2020.1.3,Win32,60,14120,0.7164,,,,,,,,,,,,,,0,37,37,28,1,,,,,,,,,,,,,,,,,,,,,,,,,,
,,,,,,,,,,,,l,Incorrect,,,,,,t3.png,t2.png,1,0.909,19,female ,2020-11-13_13h54.50.423,torte-q,2020.1.3,Win32,60,14120,2.141005,,,,,,,,,,,,,,0,38,38,23,1,,,,,,,,,,,,,,,,,,,,,,,,,,
,,,,,,,,,,,,l,Incorrect,,,,,,t1.png,t2.png,1,0.90025,19,female ,2020-11-13_13h54.50.423,torte-q,2020.1.3,Win32,60,14120,1.049545,,,,,,,,,,,,,,0,39,39,72,1,,,,,,,,,,,,,,,,,,,,,,,,,,
,,,,,,,,,,,,a,Correct!,,,,,,t4.png,t5.png,1,0.90025,19,female ,2020-11-13_13h54.50.423,torte-q,2020.1.3,Win32,60,14120,1.665985,,,,,,,,,,,,,,0,40,40,113,1,,,,,,,,,,,,,,,,,,,,,,,,,,
,,,,,,,,,,,,a,Correct!,,,,,,t4.png,t4.png,0,0.98115,19,female ,2020-11-13_13h54.50.423,torte-q,2020.1.3,Win32,60,14120,0.790865,,,,,,,,,,,,,,0,41,41,52,1,,,,,,,,,,,,,,,,,,,,,,,,,,
,,,,,,,,,,,,a,Correct!,,,,,,t3.png,t2.png,1,0.90855,19,female ,2020-11-13_13h54.50.423,torte-q,2020.1.3,Win32,60,14120,1.349155,,,,,,,,,,,,,,0,42,42,97,1,,,,,,,,,,,,,,,,,,,,,,,,,,
,,,,,,,,,,,,a,Correct!,,,,,,t3.png,t2.png,1,0.90855,19,female ,2020-11-13_13h54.50.423,torte-q,2020.1.3,Win32,60,14120,1.53106,,,,,,,,,,,,,,0,43,43,53,1,,,,,,,,,,,,,,,,,,,,,,,,,,
,,,,,,,,,,,,l,Correct!,,,,,,t3.png,t4.png,1,0.909,19,female ,2020-11-13_13h54.50.423,torte-q,2020.1.3,Win32,60,14120,1.186675,,,,,,,,,,,,,,0,44,44,82,1,,,,,,,,,,,,,,,,,,,,,,,,,,
,,,,,,,,,,,,l,Correct!,,,,,,t1.png,t5.png,4,9.55E-11,19,female ,2020-11-13_13h54.50.423,torte-q,2020.1.3,Win32,60,14120,1.16875,,,,,,,,,,,,,,0,45,45,16,1,,,,,,,,,,,,,,,,,,,,,,,,,,
,,,,,,,,,,,,l,Correct!,,,,,,t1.png,t4.png,3,0.0000131,19,female ,2020-11-13_13h54.50.423,torte-q,2020.1.3,Win32,60,14120,1.11502,,,,,,,,,,,,,,0,46,46,107,1,,,,,,,,,,,,,,,,,,,,,,,,,,
,,,,,,,,,,,,l,Correct!,,,,,,t2.png,t5.png,3,0.0000131,19,female ,2020-11-13_13h54.50.423,torte-q,2020.1.3,Win32,60,14120,1.114365,,,,,,,,,,,,,,0,47,47,104,1,,,,,,,,,,,,,,,,,,,,,,,,,,
,,,,,,,,,,,,a,Incorrect,,,,,,t5.png,t3.png,2,0.0565,19,female ,2020-11-13_13h54.50.423,torte-q,2020.1.3,Win32,60,14120,1.41927,,,,,,,,,,,,,,0,48,48,39,1,,,,,,,,,,,,,,,,,,,,,,,,,,
,,,,,,,,,,,,l,Correct!,,,,,,t1.png,t5.png,4,9.55E-11,19,female ,2020-11-13_13h54.50.423,torte-q,2020.1.3,Win32,60,14120,0.85102,,,,,,,,,,,,,,0,49,49,55,1,,,,,,,,,,,,,,,,,,,,,,,,,,
,,,,,,,,,,,,a,Correct!,,,,,,t2.png,t1.png,1,0.90025,19,female ,2020-11-13_13h54.50.423,torte-q,2020.1.3,Win32,60,14120,2.234225,,,,,,,,,,,,,,0,50,50,62,1,,,,,,,,,,,,,,,,,,,,,,,,,,
,,,,,,,,,,,,a,Correct!,,,,,,t2.png,t2.png,0,0.98115,19,female ,2020-11-13_13h54.50.423,torte-q,2020.1.3,Win32,60,14120,0.88162,,,,,,,,,,,,,,0,51,51,57,1,,,,,,,,,,,,,,,,,,,,,,,,,,
,,,,,,,,,,,,l,Incorrect,,,,,,t4.png,t3.png,1,0.90855,19,female ,2020-11-13_13h54.50.423,torte-q,2020.1.3,Win32,60,14120,1.100955,,,,,,,,,,,,,,0,52,52,45,1,,,,,,,,,,,,,,,,,,,,,,,,,,
,,,,,,,,,,,,l,Correct!,,,,,,t3.png,t5.png,2,0.0565,19,female ,2020-11-13_13h54.50.423,torte-q,2020.1.3,Win32,60,14120,0.85192,,,,,,,,,,,,,,0,53,53,83,1,,,,,,,,,,,,,,,,,,,,,,,,,,
,,,,,,,,,,,,l,Incorrect,,,,,,t4.png,t3.png,1,0.909,19,female ,2020-11-13_13h54.50.423,torte-q,2020.1.3,Win32,60,14120,1.318205,,,,,,,,,,,,,,0,54,54,46,1,,,,,,,,,,,,,,,,,,,,,,,,,,
,,,,,,,,,,,,l,Correct!,,,,,,t4.png,t2.png,2,0.059078,19,female ,2020-11-13_13h54.50.423,torte-q,2020.1.3,Win32,60,14120,1.535335,,,,,,,,,,,,,,0,55,55,110,1,,,,,,,,,,,,,,,,,,,,,,,,,,
,,,,,,,,,,,,l,Correct!,,,,,,t4.png,t1.png,3,0.0000131,19,female ,2020-11-13_13h54.50.423,torte-q,2020.1.3,Win32,60,14120,1.1534,,,,,,,,,,,,,,0,56,56,48,1,,,,,,,,,,,,,,,,,,,,,,,,,,
,,,,,,,,,,,,l,Correct!,,,,,,t1.png,t4.png,3,0.0000131,19,female ,2020-11-13_13h54.50.423,torte-q,2020.1.3,Win32,60,14120,1.057595,,,,,,,,,,,,,,0,57,57,17,1,,,,,,,,,,,,,,,,,,,,,,,,,,
,,,,,,,,,,,,l,Correct!,,,,,,t2.png,t5.png,3,0.0000131,19,female ,2020-11-13_13h54.50.423,torte-q,2020.1.3,Win32,60,14120,1.113705,,,,,,,,,,,,,,0,58,58,8,1,,,,,,,,,,,,,,,,,,,,,,,,,,
,,,,,,,,,,,,l,Correct!,,,,,,t4.png,t1.png,3,0.0000131,19,female ,2020-11-13_13h54.50.423,torte-q,2020.1.3,Win32,60,14120,0.850615,,,,,,,,,,,,,,0,59,59,13,1,,,,,,,,,,,,,,,,,,,,,,,,,,
,,,,,,,,,,,,l,Correct!,,,,,,t4.png,t2.png,2,0.059078,19,female ,2020-11-13_13h54.50.423,torte-q,2020.1.3,Win32,60,14120,1.102285,,,,,,,,,,,,,,0,60,60,86,1,,,,,,,,,,,,,,,,,,,,,,,,,,
,,,,,,,,,,,,l,Correct!,,,,,,t1.png,t4.png,3,0.0000131,19,female ,2020-11-13_13h54.50.423,torte-q,2020.1.3,Win32,60,14120,1.397715,,,,,,,,,,,,,,0,61,61,92,1,,,,,,,,,,,,,,,,,,,,,,,,,,
,,,,,,,,,,,,l,Correct!,,,,,,t2.png,t4.png,2,0.059078,19,female ,2020-11-13_13h54.50.423,torte-q,2020.1.3,Win32,60,14120,0.88581,,,,,,,,,,,,,,0,62,62,11,1,,,,,,,,,,,,,,,,,,,,,,,,,,
,,,,,,,,,,,,l,Correct!,,,,,,t5.png,t1.png,4,9.55E-11,19,female ,2020-11-13_13h54.50.423,torte-q,2020.1.3,Win32,60,14120,1.11893,,,,,,,,,,,,,,0,63,63,43,1,,,,,,,,,,,,,,,,,,,,,,,,,,
,,,,,,,,,,,,l,Incorrect,,,,,,t2.png,t3.png,1,0.90855,19,female ,2020-11-13_13h54.50.423,torte-q,2020.1.3,Win32,60,14120,0.832345,,,,,,,,,,,,,,0,64,64,68,1,,,,,,,,,,,,,,,,,,,,,,,,,,
,,,,,,,,,,,,a,Correct!,,,,,,t4.png,t4.png,0,0.98115,19,female ,2020-11-13_13h54.50.423,torte-q,2020.1.3,Win32,60,14120,0.92295,,,,,,,,,,,,,,0,65,65,90,1,,,,,,,,,,,,,,,,,,,,,,,,,,
,,,,,,,,,,,,l,Correct!,,,,,,t2.png,t4.png,2,0.059078,19,female ,2020-11-13_13h54.50.423,torte-q,2020.1.3,Win32,60,14120,1.051105,,,,,,,,,,,,,,0,66,66,77,1,,,,,,,,,,,,,,,,,,,,,,,,,,
,,,,,,,,,,,,l,Correct!,,,,,,t5.png,t3.png,2,0.056466,19,female ,2020-11-13_13h54.50.423,torte-q,2020.1.3,Win32,60,14120,2.417485,,,,,,,,,,,,,,0,67,67,114,1,,,,,,,,,,,,,,,,,,,,,,,,,,
,,,,,,,,,,,,l,Incorrect,,,,,,t2.png,t1.png,1,0.90025,19,female ,2020-11-13_13h54.50.423,torte-q,2020.1.3,Win32,60,14120,0.89855,,,,,,,,,,,,,,0,68,68,5,1,,,,,,,,,,,,,,,,,,,,,,,,,,
,,,,,,,,,,,,l,Correct!,,,,,,t2.png,t5.png,3,0.0000131,19,female ,2020-11-13_13h54.50.423,torte-q,2020.1.3,Win32,60,14120,1.82305,,,,,,,,,,,,,,0,69,69,95,1,,,,,,,,,,,,,,,,,,,,,,,,,,
,,,,,,,,,,,,a,Incorrect,,,,,,t5.png,t3.png,2,0.056466,19,female ,2020-11-13_13h54.50.423,torte-q,2020.1.3,Win32,60,14120,1.047755,,,,,,,,,,,,,,0,70,70,108,1,,,,,,,,,,,,,,,,,,,,,,,,,,
,,,,,,,,,,,,l,Incorrect,,,,,,t2.png,t3.png,1,0.90855,19,female ,2020-11-13_13h54.50.423,torte-q,2020.1.3,Win32,60,14120,1.56424,,,,,,,,,,,,,,0,71,71,10,1,,,,,,,,,,,,,,,,,,,,,,,,,,
,,,,,,,,,,,,a,Incorrect,,,,,,t5.png,t2.png,3,0.0000131,19,female ,2020-11-13_13h54.50.423,torte-q,2020.1.3,Win32,60,14120,0.973295,,,,,,,,,,,,,,0,72,72,51,1,,,,,,,,,,,,,,,,,,,,,,,,,,
,,,,,,,,,,,,l,Incorrect,,,,,,t2.png,t1.png,1,0.90025,19,female ,2020-11-13_13h54.50.423,torte-q,2020.1.3,Win32,60,14120,0.786975,,,,,,,,,,,,,,0,73,73,19,1,,,,,,,,,,,,,,,,,,,,,,,,,,
,,,,,,,,,,,,a,Correct!,,,,,,t5.png,t4.png,1,0.90025,19,female ,2020-11-13_13h54.50.423,torte-q,2020.1.3,Win32,60,14120,0.65404,,,,,,,,,,,,,,0,74,74,26,1,,,,,,,,,,,,,,,,,,,,,,,,,,
,,,,,,,,,,,,l,Incorrect,,,,,,t3.png,t4.png,1,0.909,19,female ,2020-11-13_13h54.50.423,torte-q,2020.1.3,Win32,60,14120,0.80079,,,,,,,,,,,,,,0,75,75,106,1,,,,,,,,,,,,,,,,,,,,,,,,,,
,,,,,,,,,,,,a,Correct!,,,,,,t2.png,t4.png,2,0.059078,19,female ,2020-11-13_13h54.50.423,torte-q,2020.1.3,Win32,60,14120,1.217285,,,,,,,,,,,,,,0,76,76,24,1,,,,,,,,,,,,,,,,,,,,,,,,,,
,,,,,,,,,,,,l,Correct!,,,,,,t1.png,t5.png,4,9.55E-11,19,female ,2020-11-13_13h54.50.423,torte-q,2020.1.3,Win32,60,14120,1.103275,,,,,,,,,,,,,,0,77,77,12,1,,,,,,,,,,,,,,,,,,,,,,,,,,
,,,,,,,,,,,,l,Correct!,,,,,,t3.png,t5.png,2,0.0565,19,female ,2020-11-13_13h54.50.423,torte-q,2020.1.3,Win32,60,14120,1.09857,,,,,,,,,,,,,,0,78,78,30,1,,,,,,,,,,,,,,,,,,,,,,,,,,
,,,,,,,,,,,,a,Incorrect,,,,,,t5.png,t2.png,3,0.0000131,19,female ,2020-11-13_13h54.50.423,torte-q,2020.1.3,Win32,60,14120,2.20134,,,,,,,,,,,,,,0,79,79,91,1,,,,,,,,,,,,,,,,,,,,,,,,,,
,,,,,,,,,,,,l,Incorrect,,,,,,t3.png,t2.png,1,0.90855,19,female ,2020-11-13_13h54.50.423,torte-q,2020.1.3,Win32,60,14120,1.898965,,,,,,,,,,,,,,0,80,80,18,1,,,,,,,,,,,,,,,,,,,,,,,,,,
,,,,,,,,,,,,l,Correct!,,,,,,t3.png,t1.png,2,0.056466,19,female ,2020-11-13_13h54.50.423,torte-q,2020.1.3,Win32,60,14120,0.76765,,,,,,,,,,,,,,0,81,81,29,1,,,,,,,,,,,,,,,,,,,,,,,,,,
,,,,,,,,,,,,l,Correct!,,,,,,t3.png,t1.png,2,0.056466,19,female ,2020-11-13_13h54.50.423,torte-q,2020.1.3,Win32,60,14120,0.68527,,,,,,,,,,,,,,0,82,82,32,1,,,,,,,,,,,,,,,,,,,,,,,,,,
,,,,,,,,,,,,l,Incorrect,,,,,,t2.png,t1.png,1,0.9,19,female ,2020-11-13_13h54.50.423,torte-q,2020.1.3,Win32,60,14120,0.58686,,,,,,,,,,,,,,0,83,83,118,1,,,,,,,,,,,,,,,,,,,,,,,,,,
,,,,,,,,,,,,a,Correct!,,,,,,t2.png,t3.png,1,0.90855,19,female ,2020-11-13_13h54.50.423,torte-q,2020.1.3,Win32,60,14120,1.711155,,,,,,,,,,,,,,0,84,84,111,1,,,,,,,,,,,,,,,,,,,,,,,,,,
,,,,,,,,,,,,a,Correct!,,,,,,t3.png,t4.png,1,0.90855,19,female ,2020-11-13_13h54.50.423,torte-q,2020.1.3,Win32,60,14120,1.401915,,,,,,,,,,,,,,0,85,85,84,1,,,,,,,,,,,,,,,,,,,,,,,,,,
,,,,,,,,,,,,a,Incorrect,,,,,,t5.png,t2.png,3,0.0000131,19,female ,2020-11-13_13h54.50.423,torte-q,2020.1.3,Win32,60,14120,0.9579,,,,,,,,,,,,,,0,86,86,98,1,,,,,,,,,,,,,,,,,,,,,,,,,,
,,,,,,,,,,,,,Too slow :(,,,,,,t5.png,t1.png,4,9.55E-11,19,female ,2020-11-13_13h54.50.423,torte-q,2020.1.3,Win32,60,14120,,,,,,,,,,,,,,,0,87,87,100,1,,,,,,,,,,,,,,,,,,,,,,,,,,
,,,,,,,,,,,,,Too slow :(,,,,,,t4.png,t3.png,1,0.90855,19,female ,2020-11-13_13h54.50.423,torte-q,2020.1.3,Win32,60,14120,,,,,,,,,,,,,,,0,88,88,75,1,,,,,,,,,,,,,,,,,,,,,,,,,,
,,,,,,,,,,,,l,Correct!,,,,,,t3.png,t1.png,2,0.0565,19,female ,2020-11-13_13h54.50.423,torte-q,2020.1.3,Win32,60,14120,1.53551,,,,,,,,,,,,,,0,89,89,31,1,,,,,,,,,,,,,,,,,,,,,,,,,,
,,,,,,,,,,,,a,Correct!,,,,,,t2.png,t2.png,0,0.98115,19,female ,2020-11-13_13h54.50.423,torte-q,2020.1.3,Win32,60,14120,1.23475,,,,,,,,,,,,,,0,90,90,7,1,,,,,,,,,,,,,,,,,,,,,,,,,,
,,,,,,,,,,,,l,Correct!,,,,,,t5.png,t1.png,4,9.55E-11,19,female ,2020-11-13_13h54.50.423,torte-q,2020.1.3,Win32,60,14120,2.00146,,,,,,,,,,,,,,0,91,91,71,1,,,,,,,,,,,,,,,,,,,,,,,,,,
,,,,,,,,,,,,a,Correct!,,,,,,t1.png,t1.png,0,0.97829,19,female ,2020-11-13_13h54.50.423,torte-q,2020.1.3,Win32,60,14120,0.77341,,,,,,,,,,,,,,0,92,92,78,1,,,,,,,,,,,,,,,,,,,,,,,,,,
,,,,,,,,,,,,a,Correct!,,,,,,t5.png,t5.png,0,0.978,19,female ,2020-11-13_13h54.50.423,torte-q,2020.1.3,Win32,60,14120,0.624755,,,,,,,,,,,,,,0,93,93,117,1,,,,,,,,,,,,,,,,,,,,,,,,,,
,,,,,,,,,,,,l,Correct!,,,,,,t4.png,t1.png,3,0.0000131,19,female ,2020-11-13_13h54.50.423,torte-q,2020.1.3,Win32,60,14120,2.384615,,,,,,,,,,,,,,0,94,94,61,1,,,,,,,,,,,,,,,,,,,,,,,,,,
,,,,,,,,,,,,a,Correct!,,,,,,t1.png,t1.png,0,0.97829,19,female ,2020-11-13_13h54.50.423,torte-q,2020.1.3,Win32,60,14120,0.751615,,,,,,,,,,,,,,0,95,95,67,1,,,,,,,,,,,,,,,,,,,,,,,,,,
,,,,,,,,,,,,l,Correct!,,,,,,t3.png,t1.png,2,0.056466,19,female ,2020-11-13_13h54.50.423,torte-q,2020.1.3,Win32,60,14120,1.05173,,,,,,,,,,,,,,0,96,96,64,1,,,,,,,,,,,,,,,,,,,,,,,,,,
,,,,,,,,,,,,a,Correct!,,,,,,t3.png,t5.png,2,0.056466,19,female ,2020-11-13_13h54.50.423,torte-q,2020.1.3,Win32,60,14120,1.518175,,,,,,,,,,,,,,0,97,97,14,1,,,,,,,,,,,,,,,,,,,,,,,,,,
,,,,,,,,,,,,l,Correct!,,,,,,t4.png,t2.png,2,0.059078,19,female ,2020-11-13_13h54.50.423,torte-q,2020.1.3,Win32,60,14120,1.168325,,,,,,,,,,,,,,0,98,98,88,1,,,,,,,,,,,,,,,,,,,,,,,,,,
,,,,,,,,,,,,l,Incorrect,,,,,,t2.png,t1.png,1,0.90025,19,female ,2020-11-13_13h54.50.423,torte-q,2020.1.3,Win32,60,14120,1.34162,,,,,,,,,,,,,,0,99,99,4,1,,,,,,,,,,,,,,,,,,,,,,,,,,
,,,,,,,,,,,,a,Incorrect,,,,,,t5.png,t1.png,4,9.55E-11,19,female ,2020-11-13_13h54.50.423,torte-q,2020.1.3,Win32,60,14120,1.369725,,,,,,,,,,,,,,0,100,100,22,1,,,,,,,,,,,,,,,,,,,,,,,,,,
,,,,,,,,,,,,l,Incorrect,,,,,,t1.png,t2.png,1,0.90025,19,female ,2020-11-13_13h54.50.423,torte-q,2020.1.3,Win32,60,14120,1.051775,,,,,,,,,,,,,,0,101,101,112,1,,,,,,,,,,,,,,,,,,,,,,,,,,
,,,,,,,,,,,,l,Correct!,,,,,,t1.png,t3.png,2,0.056466,19,female ,2020-11-13_13h54.50.423,torte-q,2020.1.3,Win32,60,14120,1.42113,,,,,,,,,,,,,,0,102,102,60,1,,,,,,,,,,,,,,,,,,,,,,,,,,
,,,,,,,,,,,,l,Correct!,,,,,,t1.png,t5.png,4,9.55E-11,19,female ,2020-11-13_13h54.50.423,torte-q,2020.1.3,Win32,60,14120,1.551575,,,,,,,,,,,,,,0,103,103,41,1,,,,,,,,,,,,,,,,,,,,,,,,,,
,,,,,,,,,,,,a,Correct!,,,,,,t4.png,t4.png,0,0.98115,19,female ,2020-11-13_13h54.50.423,torte-q,2020.1.3,Win32,60,14120,1.14972,,,,,,,,,,,,,,0,104,104,21,1,,,,,,,,,,,,,,,,,,,,,,,,,,
,,,,,,,,,,,,l,Incorrect,,,,,,t4.png,t5.png,1,0.90025,19,female ,2020-11-13_13h54.50.423,torte-q,2020.1.3,Win32,60,14120,1.36876,,,,,,,,,,,,,,0,105,105,47,1,,,,,,,,,,,,,,,,,,,,,,,,,,
,,,,,,,,,,,,a,Correct!,,,,,,t4.png,t4.png,0,0.98115,19,female ,2020-11-13_13h54.50.423,torte-q,2020.1.3,Win32,60,14120,0.726935,,,,,,,,,,,,,,0,106,106,80,1,,,,,,,,,,,,,,,,,,,,,,,,,,
,,,,,,,,,,,,l,Correct!,,,,,,t1.png,t3.png,2,0.056466,19,female ,2020-11-13_13h54.50.423,torte-q,2020.1.3,Win32,60,14120,1.151385,,,,,,,,,,,,,,0,107,107,87,1,,,,,,,,,,,,,,,,,,,,,,,,,,
,,,,,,,,,,,,l,Correct!,,,,,,t3.png,t1.png,2,0.056466,19,female ,2020-11-13_13h54.50.423,torte-q,2020.1.3,Win32,60,14120,0.81968,,,,,,,,,,,,,,0,108,108,0,1,,,,,,,,,,,,,,,,,,,,,,,,,,
,,,,,,,,,,,,a,Correct!,,,,,,t4.png,t3.png,1,0.90855,19,female ,2020-11-13_13h54.50.423,torte-q,2020.1.3,Win32,60,14120,1.718965,,,,,,,,,,,,,,0,109,109,35,1,,,,,,,,,,,,,,,,,,,,,,,,,,
,,,,,,,,,,,,l,Correct!,,,,,,t3.png,t5.png,2,0.056466,19,female ,2020-11-13_13h54.50.423,torte-q,2020.1.3,Win32,60,14120,1.18682,,,,,,,,,,,,,,0,110,110,6,1,,,,,,,,,,,,,,,,,,,,,,,,,,
,,,,,,,,,,,,l,Correct!,,,,,,t1.png,t4.png,3,0.0000131,19,female ,2020-11-13_13h54.50.423,torte-q,2020.1.3,Win32,60,14120,1.30123,,,,,,,,,,,,,,0,111,111,81,1,,,,,,,,,,,,,,,,,,,,,,,,,,
,,,,,,,,,,,,a,Correct!,,,,,,t5.png,t5.png,0,0.97829,19,female ,2020-11-13_13h54.50.423,torte-q,2020.1.3,Win32,60,14120,1.568395,,,,,,,,,,,,,,0,112,112,94,1,,,,,,,,,,,,,,,,,,,,,,,,,,
,,,,,,,,,,,,l,Correct!,,,,,,t2.png,t5.png,3,0.0000131,19,female ,2020-11-13_13h54.50.423,torte-q,2020.1.3,Win32,60,14120,1.2338,,,,,,,,,,,,,,0,113,113,66,1,,,,,,,,,,,,,,,,,,,,,,,,,,
,,,,,,,,,,,,l,Correct!,,,,,,t2.png,t4.png,2,0.059078,19,female ,2020-11-13_13h54.50.423,torte-q,2020.1.3,Win32,60,14120,1.43624,,,,,,,,,,,,,,0,114,114,37,1,,,,,,,,,,,,,,,,,,,,,,,,,,
,,,,,,,,,,,,l,Incorrect,,,,,,t1.png,t2.png,1,0.90025,19,female ,2020-11-13_13h54.50.423,torte-q,2020.1.3,Win32,60,14120,1.16792,,,,,,,,,,,,,,0,115,115,105,1,,,,,,,,,,,,,,,,,,,,,,,,,,
,,,,,,,,,,,,a,Incorrect,,,,,,t5.png,t3.png,2,0.056466,19,female ,2020-11-13_13h54.50.423,torte-q,2020.1.3,Win32,60,14120,1.43681,,,,,,,,,,,,,,0,116,116,38,1,,,,,,,,,,,,,,,,,,,,,,,,,,
,,,,,,,,,,,,a,Correct!,,,,,,t2.png,t3.png,1,0.90855,19,female ,2020-11-13_13h54.50.423,torte-q,2020.1.3,Win32,60,14120,1.454815,,,,,,,,,,,,,,0,117,117,65,1,,,,,,,,,,,,,,,,,,,,,,,,,,
,,,,,,,,,,,,a,Correct!,,,,,,t5.png,t5.png,0,0.97829,19,female ,2020-11-13_13h54.50.423,torte-q,2020.1.3,Win32,60,14120,0.70542,,,,,,,,,,,,,,0,118,118,70,1,,,,,,,,,,,,,,,,,,,,,,,,,,
,,,,,,,,,,,,l,Incorrect,,,,,,t5.png,t4.png,1,0.9,19,female ,2020-11-13_13h54.50.423,torte-q,2020.1.3,Win32,60,14120,1.032745,,,,,,,,,,,,,,0,119,119,49,1,,,,,,,,,,,,,,,,,,,,,,,,,,
,,,,,,,,,,,,,,,,,,,,,,,19,female ,2020-11-13_13h54.50.423,torte-q,2020.1.3,Win32,60,14120,,space,1.94652,,,,,,,,,,,,,,,,,4.460000305,4.871535,132.000023,194.6666516,1,0,0,s1,72.66668791,89.33330492,1,0,0,t1,154.6666903,-104.0000138,1,0,0,proceed,space,27.972725,space,0.75061,space,0.09966
