key_resp_8.keys,key_resp_8.rt,key_resp_9.keys,key_resp_9.rt,key_resp_10.keys,key_resp_10.rt,key_resp_11.keys,key_resp_11.rt,key_resp_2.keys,key_resp_2.rt,key_resp_3.keys,key_resp_3.rt,key_resp.keys,key_resp.rt,Feedback,train.thisRepN,train.thisTrialN,train.thisN,train.thisIndex,train.ran,torta_sx,torta_dx,difference,probability,age,gender,date,expName,psychopyVersion,OS,frameRate,participant,key_resp_15.keys,key_resp_15.rt,key_resp_6.keys,key_resp_6.rt,test1.thisRepN,test1.thisTrialN,test1.thisN,test1.thisIndex,test1.ran,key_resp_16.keys,key_resp_16.rt,key_resp_7.keys,key_resp_7.rt,test2.thisRepN,test2.thisTrialN,test2.thisN,test2.thisIndex,test2.ran,rating.response,rating.rt,mouse.x,mouse.y,mouse.leftButton,mouse.midButton,mouse.rightButton,mouse.clicked_name,mouse_2.x,mouse_2.y,mouse_2.leftButton,mouse_2.midButton,mouse_2.rightButton,mouse_2.clicked_name,mouse_3.x,mouse_3.y,mouse_3.leftButton,mouse_3.midButton,mouse_3.rightButton,mouse_3.clicked_name,key_resp_12.keys,key_resp_12.rt,key_resp_13.keys,key_resp_13.rt,key_resp_14.keys,key_resp_14.rt
space,42.203525,space,33.927415,space,2.811195,space,15.445575,space,11.000225,space,27.264785,a,0.955585,Incorrect,0,0,0,36,1,t3.png,t1.png,2,0.0565,18,Female,2020-11-03_12h17.07.875,torte-q,2020.1.3,Win32,60,14127,,,,,,,,,,,,,,,,,,,,,,,,,,,,,,,,,,,,,,,,,,,,
,,,,,,,,,,,,l,1.163475,Correct!,0,1,1,89,1,t1.png,t4.png,3,0.0000131,18,Female,2020-11-03_12h17.07.875,torte-q,2020.1.3,Win32,60,14127,,,,,,,,,,,,,,,,,,,,,,,,,,,,,,,,,,,,,,,,,,,,
,,,,,,,,,,,,a,0.88152,Incorrect,0,2,2,27,1,t3.png,t1.png,2,0.0565,18,Female,2020-11-03_12h17.07.875,torte-q,2020.1.3,Win32,60,14127,,,,,,,,,,,,,,,,,,,,,,,,,,,,,,,,,,,,,,,,,,,,
,,,,,,,,,,,,,,Too slow :(,0,3,3,97,1,t5.png,t5.png,0,0.97829,18,Female,2020-11-03_12h17.07.875,torte-q,2020.1.3,Win32,60,14127,,,,,,,,,,,,,,,,,,,,,,,,,,,,,,,,,,,,,,,,,,,,
,,,,,,,,,,,,l,0.96775,Incorrect,0,4,4,65,1,t4.png,t5.png,1,0.90025,18,Female,2020-11-03_12h17.07.875,torte-q,2020.1.3,Win32,60,14127,,,,,,,,,,,,,,,,,,,,,,,,,,,,,,,,,,,,,,,,,,,,
,,,,,,,,,,,,a,1.081895,Correct!,0,5,5,8,1,t3.png,t2.png,1,0.90855,18,Female,2020-11-03_12h17.07.875,torte-q,2020.1.3,Win32,60,14127,,,,,,,,,,,,,,,,,,,,,,,,,,,,,,,,,,,,,,,,,,,,
,,,,,,,,,,,,l,1.25689,Correct!,0,6,6,5,1,t2.png,t4.png,2,0.059078,18,Female,2020-11-03_12h17.07.875,torte-q,2020.1.3,Win32,60,14127,,,,,,,,,,,,,,,,,,,,,,,,,,,,,,,,,,,,,,,,,,,,
,,,,,,,,,,,,a,1.63965,Correct!,0,7,7,78,1,t1.png,t1.png,0,0.978,18,Female,2020-11-03_12h17.07.875,torte-q,2020.1.3,Win32,60,14127,,,,,,,,,,,,,,,,,,,,,,,,,,,,,,,,,,,,,,,,,,,,
,,,,,,,,,,,,a,0.889245,Incorrect,0,8,8,82,1,t5.png,t1.png,4,9.55E-11,18,Female,2020-11-03_12h17.07.875,torte-q,2020.1.3,Win32,60,14127,,,,,,,,,,,,,,,,,,,,,,,,,,,,,,,,,,,,,,,,,,,,
,,,,,,,,,,,,l,1.39317,Incorrect,0,9,9,10,1,t2.png,t3.png,1,0.90855,18,Female,2020-11-03_12h17.07.875,torte-q,2020.1.3,Win32,60,14127,,,,,,,,,,,,,,,,,,,,,,,,,,,,,,,,,,,,,,,,,,,,
,,,,,,,,,,,,l,0.717335,Correct!,0,10,10,99,1,t1.png,t5.png,4,9.55E-11,18,Female,2020-11-03_12h17.07.875,torte-q,2020.1.3,Win32,60,14127,,,,,,,,,,,,,,,,,,,,,,,,,,,,,,,,,,,,,,,,,,,,
,,,,,,,,,,,,a,0.72383,Incorrect,0,11,11,83,1,t3.png,t1.png,2,0.056466,18,Female,2020-11-03_12h17.07.875,torte-q,2020.1.3,Win32,60,14127,,,,,,,,,,,,,,,,,,,,,,,,,,,,,,,,,,,,,,,,,,,,
,,,,,,,,,,,,,,Too slow :(,0,12,12,28,1,t2.png,t3.png,1,0.909,18,Female,2020-11-03_12h17.07.875,torte-q,2020.1.3,Win32,60,14127,,,,,,,,,,,,,,,,,,,,,,,,,,,,,,,,,,,,,,,,,,,,
,,,,,,,,,,,,a,0.71679,Incorrect,0,13,13,45,1,t3.png,t2.png,1,0.90855,18,Female,2020-11-03_12h17.07.875,torte-q,2020.1.3,Win32,60,14127,,,,,,,,,,,,,,,,,,,,,,,,,,,,,,,,,,,,,,,,,,,,
,,,,,,,,,,,,l,1.102215,Incorrect,0,14,14,81,1,t1.png,t1.png,0,0.97829,18,Female,2020-11-03_12h17.07.875,torte-q,2020.1.3,Win32,60,14127,,,,,,,,,,,,,,,,,,,,,,,,,,,,,,,,,,,,,,,,,,,,
,,,,,,,,,,,,l,0.826025,Correct!,0,15,15,90,1,t1.png,t5.png,4,9.55E-11,18,Female,2020-11-03_12h17.07.875,torte-q,2020.1.3,Win32,60,14127,,,,,,,,,,,,,,,,,,,,,,,,,,,,,,,,,,,,,,,,,,,,
,,,,,,,,,,,,a,1.06699,Correct!,0,16,16,118,1,t5.png,t5.png,0,0.978,18,Female,2020-11-03_12h17.07.875,torte-q,2020.1.3,Win32,60,14127,,,,,,,,,,,,,,,,,,,,,,,,,,,,,,,,,,,,,,,,,,,,
,,,,,,,,,,,,a,1.23416,Incorrect,0,17,17,56,1,t5.png,t1.png,4,9.55E-11,18,Female,2020-11-03_12h17.07.875,torte-q,2020.1.3,Win32,60,14127,,,,,,,,,,,,,,,,,,,,,,,,,,,,,,,,,,,,,,,,,,,,
,,,,,,,,,,,,a,1.20044,Incorrect,0,18,18,111,1,t5.png,t1.png,4,9.55E-11,18,Female,2020-11-03_12h17.07.875,torte-q,2020.1.3,Win32,60,14127,,,,,,,,,,,,,,,,,,,,,,,,,,,,,,,,,,,,,,,,,,,,
,,,,,,,,,,,,l,1.698435,Correct!,0,19,19,48,1,t5.png,t5.png,0,0.97829,18,Female,2020-11-03_12h17.07.875,torte-q,2020.1.3,Win32,60,14127,,,,,,,,,,,,,,,,,,,,,,,,,,,,,,,,,,,,,,,,,,,,
,,,,,,,,,,,,l,1.20641,Incorrect,0,20,20,92,1,t2.png,t3.png,1,0.909,18,Female,2020-11-03_12h17.07.875,torte-q,2020.1.3,Win32,60,14127,,,,,,,,,,,,,,,,,,,,,,,,,,,,,,,,,,,,,,,,,,,,
,,,,,,,,,,,,a,1.38112,Correct!,0,21,21,70,1,t5.png,t5.png,0,0.978,18,Female,2020-11-03_12h17.07.875,torte-q,2020.1.3,Win32,60,14127,,,,,,,,,,,,,,,,,,,,,,,,,,,,,,,,,,,,,,,,,,,,
,,,,,,,,,,,,l,1.183295,Correct!,0,22,22,108,1,t5.png,t1.png,4,9.55E-11,18,Female,2020-11-03_12h17.07.875,torte-q,2020.1.3,Win32,60,14127,,,,,,,,,,,,,,,,,,,,,,,,,,,,,,,,,,,,,,,,,,,,
,,,,,,,,,,,,a,1.781665,Correct!,0,23,23,9,1,t4.png,t5.png,1,0.9,18,Female,2020-11-03_12h17.07.875,torte-q,2020.1.3,Win32,60,14127,,,,,,,,,,,,,,,,,,,,,,,,,,,,,,,,,,,,,,,,,,,,
,,,,,,,,,,,,a,0.87111,Incorrect,0,24,24,119,1,t1.png,t5.png,4,9.55E-11,18,Female,2020-11-03_12h17.07.875,torte-q,2020.1.3,Win32,60,14127,,,,,,,,,,,,,,,,,,,,,,,,,,,,,,,,,,,,,,,,,,,,
,,,,,,,,,,,,l,0.61429,Correct!,0,25,25,4,1,t1.png,t5.png,4,9.55E-11,18,Female,2020-11-03_12h17.07.875,torte-q,2020.1.3,Win32,60,14127,,,,,,,,,,,,,,,,,,,,,,,,,,,,,,,,,,,,,,,,,,,,
,,,,,,,,,,,,a,0.804945,Incorrect,0,26,26,37,1,t1.png,t4.png,3,0.0000131,18,Female,2020-11-03_12h17.07.875,torte-q,2020.1.3,Win32,60,14127,,,,,,,,,,,,,,,,,,,,,,,,,,,,,,,,,,,,,,,,,,,,
,,,,,,,,,,,,a,1.114725,Correct!,0,27,27,76,1,t3.png,t2.png,1,0.90855,18,Female,2020-11-03_12h17.07.875,torte-q,2020.1.3,Win32,60,14127,,,,,,,,,,,,,,,,,,,,,,,,,,,,,,,,,,,,,,,,,,,,
,,,,,,,,,,,,l,0.67117,Correct!,0,28,28,11,1,t1.png,t4.png,3,0.0000131,18,Female,2020-11-03_12h17.07.875,torte-q,2020.1.3,Win32,60,14127,,,,,,,,,,,,,,,,,,,,,,,,,,,,,,,,,,,,,,,,,,,,
,,,,,,,,,,,,a,1.34801,Correct!,0,29,29,100,1,t4.png,t5.png,1,0.90025,18,Female,2020-11-03_12h17.07.875,torte-q,2020.1.3,Win32,60,14127,,,,,,,,,,,,,,,,,,,,,,,,,,,,,,,,,,,,,,,,,,,,
,,,,,,,,,,,,l,0.732795,Correct!,0,30,30,31,1,t1.png,t5.png,4,9.55E-11,18,Female,2020-11-03_12h17.07.875,torte-q,2020.1.3,Win32,60,14127,,,,,,,,,,,,,,,,,,,,,,,,,,,,,,,,,,,,,,,,,,,,
,,,,,,,,,,,,a,1.886405,Correct!,0,31,31,18,1,t4.png,t5.png,1,0.90025,18,Female,2020-11-03_12h17.07.875,torte-q,2020.1.3,Win32,60,14127,,,,,,,,,,,,,,,,,,,,,,,,,,,,,,,,,,,,,,,,,,,,
,,,,,,,,,,,,l,1.23477,Correct!,0,32,32,0,1,t5.png,t1.png,4,9.55E-11,18,Female,2020-11-03_12h17.07.875,torte-q,2020.1.3,Win32,60,14127,,,,,,,,,,,,,,,,,,,,,,,,,,,,,,,,,,,,,,,,,,,,
,,,,,,,,,,,,a,1.15141,Correct!,0,33,33,22,1,t2.png,t3.png,1,0.90855,18,Female,2020-11-03_12h17.07.875,torte-q,2020.1.3,Win32,60,14127,,,,,,,,,,,,,,,,,,,,,,,,,,,,,,,,,,,,,,,,,,,,
,,,,,,,,,,,,l,1.21474,Correct!,0,34,34,61,1,t1.png,t4.png,3,0.0000131,18,Female,2020-11-03_12h17.07.875,torte-q,2020.1.3,Win32,60,14127,,,,,,,,,,,,,,,,,,,,,,,,,,,,,,,,,,,,,,,,,,,,
,,,,,,,,,,,,a,1.039325,Incorrect,0,35,35,19,1,t4.png,t2.png,2,0.059078,18,Female,2020-11-03_12h17.07.875,torte-q,2020.1.3,Win32,60,14127,,,,,,,,,,,,,,,,,,,,,,,,,,,,,,,,,,,,,,,,,,,,
,,,,,,,,,,,,l,0.602605,Correct!,0,36,36,88,1,t3.png,t1.png,2,0.056466,18,Female,2020-11-03_12h17.07.875,torte-q,2020.1.3,Win32,60,14127,,,,,,,,,,,,,,,,,,,,,,,,,,,,,,,,,,,,,,,,,,,,
,,,,,,,,,,,,a,1.099535,Incorrect,0,37,37,68,1,t1.png,t4.png,3,0.0000131,18,Female,2020-11-03_12h17.07.875,torte-q,2020.1.3,Win32,60,14127,,,,,,,,,,,,,,,,,,,,,,,,,,,,,,,,,,,,,,,,,,,,
,,,,,,,,,,,,a,1.701065,Correct!,0,38,38,23,1,t5.png,t4.png,1,0.90025,18,Female,2020-11-03_12h17.07.875,torte-q,2020.1.3,Win32,60,14127,,,,,,,,,,,,,,,,,,,,,,,,,,,,,,,,,,,,,,,,,,,,
,,,,,,,,,,,,l,0.865215,Correct!,0,39,39,33,1,t5.png,t1.png,4,9.55E-11,18,Female,2020-11-03_12h17.07.875,torte-q,2020.1.3,Win32,60,14127,,,,,,,,,,,,,,,,,,,,,,,,,,,,,,,,,,,,,,,,,,,,
,,,,,,,,,,,,l,1.46465,Correct!,0,40,40,91,1,t1.png,t4.png,3,0.0000131,18,Female,2020-11-03_12h17.07.875,torte-q,2020.1.3,Win32,60,14127,,,,,,,,,,,,,,,,,,,,,,,,,,,,,,,,,,,,,,,,,,,,
,,,,,,,,,,,,l,1.184325,Correct!,0,41,41,54,1,t1.png,t5.png,4,9.55E-11,18,Female,2020-11-03_12h17.07.875,torte-q,2020.1.3,Win32,60,14127,,,,,,,,,,,,,,,,,,,,,,,,,,,,,,,,,,,,,,,,,,,,
,,,,,,,,,,,,a,1.101885,Correct!,0,42,42,71,1,t5.png,t5.png,0,0.97829,18,Female,2020-11-03_12h17.07.875,torte-q,2020.1.3,Win32,60,14127,,,,,,,,,,,,,,,,,,,,,,,,,,,,,,,,,,,,,,,,,,,,
,,,,,,,,,,,,a,1.555655,Incorrect,0,43,43,1,1,t2.png,t4.png,2,0.059078,18,Female,2020-11-03_12h17.07.875,torte-q,2020.1.3,Win32,60,14127,,,,,,,,,,,,,,,,,,,,,,,,,,,,,,,,,,,,,,,,,,,,
,,,,,,,,,,,,l,0.897785,Correct!,0,44,44,93,1,t2.png,t4.png,2,0.059078,18,Female,2020-11-03_12h17.07.875,torte-q,2020.1.3,Win32,60,14127,,,,,,,,,,,,,,,,,,,,,,,,,,,,,,,,,,,,,,,,,,,,
,,,,,,,,,,,,a,1.08338,Correct!,0,45,45,107,1,t1.png,t1.png,0,0.978,18,Female,2020-11-03_12h17.07.875,torte-q,2020.1.3,Win32,60,14127,,,,,,,,,,,,,,,,,,,,,,,,,,,,,,,,,,,,,,,,,,,,
,,,,,,,,,,,,l,1.148415,Incorrect,0,46,46,49,1,t4.png,t5.png,1,0.9,18,Female,2020-11-03_12h17.07.875,torte-q,2020.1.3,Win32,60,14127,,,,,,,,,,,,,,,,,,,,,,,,,,,,,,,,,,,,,,,,,,,,
,,,,,,,,,,,,l,1.26739,Correct!,0,47,47,47,1,t4.png,t2.png,2,0.059078,18,Female,2020-11-03_12h17.07.875,torte-q,2020.1.3,Win32,60,14127,,,,,,,,,,,,,,,,,,,,,,,,,,,,,,,,,,,,,,,,,,,,
,,,,,,,,,,,,a,0.81488,Incorrect,0,48,48,40,1,t1.png,t5.png,4,9.55E-11,18,Female,2020-11-03_12h17.07.875,torte-q,2020.1.3,Win32,60,14127,,,,,,,,,,,,,,,,,,,,,,,,,,,,,,,,,,,,,,,,,,,,
,,,,,,,,,,,,l,0.825695,Correct!,0,49,49,26,1,t4.png,t2.png,2,0.0591,18,Female,2020-11-03_12h17.07.875,torte-q,2020.1.3,Win32,60,14127,,,,,,,,,,,,,,,,,,,,,,,,,,,,,,,,,,,,,,,,,,,,
,,,,,,,,,,,,a,1.36696,Incorrect,0,50,50,117,1,t1.png,t5.png,4,9.55E-11,18,Female,2020-11-03_12h17.07.875,torte-q,2020.1.3,Win32,60,14127,,,,,,,,,,,,,,,,,,,,,,,,,,,,,,,,,,,,,,,,,,,,
,,,,,,,,,,,,a,1.600135,Incorrect,0,51,51,43,1,t4.png,t2.png,2,0.059078,18,Female,2020-11-03_12h17.07.875,torte-q,2020.1.3,Win32,60,14127,,,,,,,,,,,,,,,,,,,,,,,,,,,,,,,,,,,,,,,,,,,,
,,,,,,,,,,,,l,0.982295,Incorrect,0,52,52,105,1,t3.png,t2.png,1,0.90855,18,Female,2020-11-03_12h17.07.875,torte-q,2020.1.3,Win32,60,14127,,,,,,,,,,,,,,,,,,,,,,,,,,,,,,,,,,,,,,,,,,,,
,,,,,,,,,,,,a,0.542775,Correct!,0,53,53,29,1,t5.png,t5.png,0,0.97829,18,Female,2020-11-03_12h17.07.875,torte-q,2020.1.3,Win32,60,14127,,,,,,,,,,,,,,,,,,,,,,,,,,,,,,,,,,,,,,,,,,,,
,,,,,,,,,,,,a,0.764915,Correct!,0,54,54,69,1,t4.png,t2.png,2,0.059078,18,Female,2020-11-03_12h17.07.875,torte-q,2020.1.3,Win32,60,14127,,,,,,,,,,,,,,,,,,,,,,,,,,,,,,,,,,,,,,,,,,,,
,,,,,,,,,,,,a,0.91732,Incorrect,0,55,55,3,1,t1.png,t5.png,4,9.55E-11,18,Female,2020-11-03_12h17.07.875,torte-q,2020.1.3,Win32,60,14127,,,,,,,,,,,,,,,,,,,,,,,,,,,,,,,,,,,,,,,,,,,,
,,,,,,,,,,,,a,0.94141,Incorrect,0,56,56,12,1,t5.png,t1.png,4,9.55E-11,18,Female,2020-11-03_12h17.07.875,torte-q,2020.1.3,Win32,60,14127,,,,,,,,,,,,,,,,,,,,,,,,,,,,,,,,,,,,,,,,,,,,
,,,,,,,,,,,,l,0.37553,Correct!,0,57,57,21,1,t5.png,t4.png,1,0.90025,18,Female,2020-11-03_12h17.07.875,torte-q,2020.1.3,Win32,60,14127,,,,,,,,,,,,,,,,,,,,,,,,,,,,,,,,,,,,,,,,,,,,
,,,,,,,,,,,,a,1.331465,Correct!,0,58,58,39,1,t3.png,t2.png,1,0.90855,18,Female,2020-11-03_12h17.07.875,torte-q,2020.1.3,Win32,60,14127,,,,,,,,,,,,,,,,,,,,,,,,,,,,,,,,,,,,,,,,,,,,
,,,,,,,,,,,,a,2.25616,Incorrect,0,59,59,50,1,t5.png,t1.png,4,9.55E-11,18,Female,2020-11-03_12h17.07.875,torte-q,2020.1.3,Win32,60,14127,,,,,,,,,,,,,,,,,,,,,,,,,,,,,,,,,,,,,,,,,,,,
,,,,,,,,,,,,l,1.031835,Incorrect,0,60,60,101,1,t4.png,t5.png,1,0.90025,18,Female,2020-11-03_12h17.07.875,torte-q,2020.1.3,Win32,60,14127,,,,,,,,,,,,,,,,,,,,,,,,,,,,,,,,,,,,,,,,,,,,
,,,,,,,,,,,,a,1.181355,Correct!,0,61,61,62,1,t5.png,t5.png,0,0.978,18,Female,2020-11-03_12h17.07.875,torte-q,2020.1.3,Win32,60,14127,,,,,,,,,,,,,,,,,,,,,,,,,,,,,,,,,,,,,,,,,,,,
,,,,,,,,,,,,l,1.841185,Incorrect,0,62,62,113,1,t5.png,t4.png,1,0.9,18,Female,2020-11-03_12h17.07.875,torte-q,2020.1.3,Win32,60,14127,,,,,,,,,,,,,,,,,,,,,,,,,,,,,,,,,,,,,,,,,,,,
,,,,,,,,,,,,a,0.91769,Correct!,0,63,63,84,1,t1.png,t1.png,0,0.97829,18,Female,2020-11-03_12h17.07.875,torte-q,2020.1.3,Win32,60,14127,,,,,,,,,,,,,,,,,,,,,,,,,,,,,,,,,,,,,,,,,,,,
,,,,,,,,,,,,a,1.190145,Incorrect,0,64,64,30,1,t3.png,t1.png,2,0.056466,18,Female,2020-11-03_12h17.07.875,torte-q,2020.1.3,Win32,60,14127,,,,,,,,,,,,,,,,,,,,,,,,,,,,,,,,,,,,,,,,,,,,
,,,,,,,,,,,,l,0.656415,Correct!,0,65,65,60,1,t2.png,t4.png,2,0.059078,18,Female,2020-11-03_12h17.07.875,torte-q,2020.1.3,Win32,60,14127,,,,,,,,,,,,,,,,,,,,,,,,,,,,,,,,,,,,,,,,,,,,
,,,,,,,,,,,,l,0.836555,Correct!,0,66,66,53,1,t3.png,t1.png,2,0.056466,18,Female,2020-11-03_12h17.07.875,torte-q,2020.1.3,Win32,60,14127,,,,,,,,,,,,,,,,,,,,,,,,,,,,,,,,,,,,,,,,,,,,
,,,,,,,,,,,,a,1.18488,Correct!,0,67,67,114,1,t2.png,t3.png,1,0.90855,18,Female,2020-11-03_12h17.07.875,torte-q,2020.1.3,Win32,60,14127,,,,,,,,,,,,,,,,,,,,,,,,,,,,,,,,,,,,,,,,,,,,
,,,,,,,,,,,,l,1.17081,Correct!,0,68,68,46,1,t4.png,t2.png,2,0.059078,18,Female,2020-11-03_12h17.07.875,torte-q,2020.1.3,Win32,60,14127,,,,,,,,,,,,,,,,,,,,,,,,,,,,,,,,,,,,,,,,,,,,
,,,,,,,,,,,,a,1.48523,Correct!,0,69,69,13,1,t5.png,t5.png,0,0.97829,18,Female,2020-11-03_12h17.07.875,torte-q,2020.1.3,Win32,60,14127,,,,,,,,,,,,,,,,,,,,,,,,,,,,,,,,,,,,,,,,,,,,
,,,,,,,,,,,,a,1.34235,Correct!,0,70,70,110,1,t4.png,t5.png,1,0.90025,18,Female,2020-11-03_12h17.07.875,torte-q,2020.1.3,Win32,60,14127,,,,,,,,,,,,,,,,,,,,,,,,,,,,,,,,,,,,,,,,,,,,
,,,,,,,,,,,,a,1.251705,Incorrect,0,71,71,115,1,t2.png,t4.png,2,0.059078,18,Female,2020-11-03_12h17.07.875,torte-q,2020.1.3,Win32,60,14127,,,,,,,,,,,,,,,,,,,,,,,,,,,,,,,,,,,,,,,,,,,,
,,,,,,,,,,,,l,1.00527,Correct!,0,72,72,94,1,t5.png,t1.png,4,9.55E-11,18,Female,2020-11-03_12h17.07.875,torte-q,2020.1.3,Win32,60,14127,,,,,,,,,,,,,,,,,,,,,,,,,,,,,,,,,,,,,,,,,,,,
,,,,,,,,,,,,a,0.632905,Correct!,0,73,73,44,1,t2.png,t3.png,1,0.909,18,Female,2020-11-03_12h17.07.875,torte-q,2020.1.3,Win32,60,14127,,,,,,,,,,,,,,,,,,,,,,,,,,,,,,,,,,,,,,,,,,,,
,,,,,,,,,,,,l,1.05387,Incorrect,0,74,74,75,1,t1.png,t1.png,0,0.97829,18,Female,2020-11-03_12h17.07.875,torte-q,2020.1.3,Win32,60,14127,,,,,,,,,,,,,,,,,,,,,,,,,,,,,,,,,,,,,,,,,,,,
,,,,,,,,,,,,a,1.00337,Correct!,0,75,75,79,1,t3.png,t2.png,1,0.909,18,Female,2020-11-03_12h17.07.875,torte-q,2020.1.3,Win32,60,14127,,,,,,,,,,,,,,,,,,,,,,,,,,,,,,,,,,,,,,,,,,,,
,,,,,,,,,,,,a,0.73733,Correct!,0,76,76,16,1,t5.png,t4.png,1,0.9,18,Female,2020-11-03_12h17.07.875,torte-q,2020.1.3,Win32,60,14127,,,,,,,,,,,,,,,,,,,,,,,,,,,,,,,,,,,,,,,,,,,,
,,,,,,,,,,,,l,0.75611,Incorrect,0,77,77,64,1,t1.png,t1.png,0,0.978,18,Female,2020-11-03_12h17.07.875,torte-q,2020.1.3,Win32,60,14127,,,,,,,,,,,,,,,,,,,,,,,,,,,,,,,,,,,,,,,,,,,,
,,,,,,,,,,,,a,0.653575,Incorrect,0,78,78,14,1,t2.png,t4.png,2,0.059078,18,Female,2020-11-03_12h17.07.875,torte-q,2020.1.3,Win32,60,14127,,,,,,,,,,,,,,,,,,,,,,,,,,,,,,,,,,,,,,,,,,,,
,,,,,,,,,,,,l,1.114365,Correct!,0,79,79,102,1,t4.png,t2.png,2,0.059078,18,Female,2020-11-03_12h17.07.875,torte-q,2020.1.3,Win32,60,14127,,,,,,,,,,,,,,,,,,,,,,,,,,,,,,,,,,,,,,,,,,,,
,,,,,,,,,,,,a,0.7722,Correct!,0,80,80,104,1,t2.png,t3.png,1,0.90855,18,Female,2020-11-03_12h17.07.875,torte-q,2020.1.3,Win32,60,14127,,,,,,,,,,,,,,,,,,,,,,,,,,,,,,,,,,,,,,,,,,,,
,,,,,,,,,,,,a,1.46457,Incorrect,0,81,81,109,1,t5.png,t5.png,0,0.97829,18,Female,2020-11-03_12h17.07.875,torte-q,2020.1.3,Win32,60,14127,,,,,,,,,,,,,,,,,,,,,,,,,,,,,,,,,,,,,,,,,,,,
,,,,,,,,,,,,l,0.81836,Correct!,0,82,82,38,1,t3.png,t1.png,2,0.056466,18,Female,2020-11-03_12h17.07.875,torte-q,2020.1.3,Win32,60,14127,,,,,,,,,,,,,,,,,,,,,,,,,,,,,,,,,,,,,,,,,,,,
,,,,,,,,,,,,a,1.14732,Correct!,0,83,83,59,1,t5.png,t4.png,1,0.9,18,Female,2020-11-03_12h17.07.875,torte-q,2020.1.3,Win32,60,14127,,,,,,,,,,,,,,,,,,,,,,,,,,,,,,,,,,,,,,,,,,,,
,,,,,,,,,,,,a,1.06917,Incorrect,0,84,84,73,1,t4.png,t2.png,2,0.059078,18,Female,2020-11-03_12h17.07.875,torte-q,2020.1.3,Win32,60,14127,,,,,,,,,,,,,,,,,,,,,,,,,,,,,,,,,,,,,,,,,,,,
,,,,,,,,,,,,l,0.41974,Incorrect,0,85,85,7,1,t4.png,t5.png,1,0.90025,18,Female,2020-11-03_12h17.07.875,torte-q,2020.1.3,Win32,60,14127,,,,,,,,,,,,,,,,,,,,,,,,,,,,,,,,,,,,,,,,,,,,
,,,,,,,,,,,,a,0.56455,Incorrect,0,86,86,72,1,t4.png,t2.png,2,0.059078,18,Female,2020-11-03_12h17.07.875,torte-q,2020.1.3,Win32,60,14127,,,,,,,,,,,,,,,,,,,,,,,,,,,,,,,,,,,,,,,,,,,,
,,,,,,,,,,,,l,0.614425,Correct!,0,87,87,51,1,t3.png,t1.png,2,0.056466,18,Female,2020-11-03_12h17.07.875,torte-q,2020.1.3,Win32,60,14127,,,,,,,,,,,,,,,,,,,,,,,,,,,,,,,,,,,,,,,,,,,,
,,,,,,,,,,,,a,0.94776,Correct!,0,88,88,66,1,t4.png,t5.png,1,0.9,18,Female,2020-11-03_12h17.07.875,torte-q,2020.1.3,Win32,60,14127,,,,,,,,,,,,,,,,,,,,,,,,,,,,,,,,,,,,,,,,,,,,
,,,,,,,,,,,,a,0.937345,Incorrect,0,89,89,57,1,t2.png,t4.png,2,0.059078,18,Female,2020-11-03_12h17.07.875,torte-q,2020.1.3,Win32,60,14127,,,,,,,,,,,,,,,,,,,,,,,,,,,,,,,,,,,,,,,,,,,,
,,,,,,,,,,,,l,0.681135,Incorrect,0,90,90,77,1,t1.png,t1.png,0,0.97829,18,Female,2020-11-03_12h17.07.875,torte-q,2020.1.3,Win32,60,14127,,,,,,,,,,,,,,,,,,,,,,,,,,,,,,,,,,,,,,,,,,,,
,,,,,,,,,,,,a,0.665135,Correct!,0,91,91,63,1,t2.png,t3.png,1,0.909,18,Female,2020-11-03_12h17.07.875,torte-q,2020.1.3,Win32,60,14127,,,,,,,,,,,,,,,,,,,,,,,,,,,,,,,,,,,,,,,,,,,,
,,,,,,,,,,,,a,1.066875,Correct!,0,92,92,41,1,t3.png,t2.png,1,0.90855,18,Female,2020-11-03_12h17.07.875,torte-q,2020.1.3,Win32,60,14127,,,,,,,,,,,,,,,,,,,,,,,,,,,,,,,,,,,,,,,,,,,,
,,,,,,,,,,,,l,0.740615,Incorrect,0,93,93,20,1,t2.png,t3.png,1,0.90855,18,Female,2020-11-03_12h17.07.875,torte-q,2020.1.3,Win32,60,14127,,,,,,,,,,,,,,,,,,,,,,,,,,,,,,,,,,,,,,,,,,,,
,,,,,,,,,,,,l,2.234635,Incorrect,0,94,94,34,1,t5.png,t4.png,1,0.9,18,Female,2020-11-03_12h17.07.875,torte-q,2020.1.3,Win32,60,14127,,,,,,,,,,,,,,,,,,,,,,,,,,,,,,,,,,,,,,,,,,,,
,,,,,,,,,,,,a,1.381145,Incorrect,0,95,95,52,1,t2.png,t4.png,2,0.059078,18,Female,2020-11-03_12h17.07.875,torte-q,2020.1.3,Win32,60,14127,,,,,,,,,,,,,,,,,,,,,,,,,,,,,,,,,,,,,,,,,,,,
,,,,,,,,,,,,l,0.831235,Correct!,0,96,96,67,1,t1.png,t5.png,4,9.55E-11,18,Female,2020-11-03_12h17.07.875,torte-q,2020.1.3,Win32,60,14127,,,,,,,,,,,,,,,,,,,,,,,,,,,,,,,,,,,,,,,,,,,,
,,,,,,,,,,,,l,1.232075,Correct!,0,97,97,35,1,t1.png,t4.png,3,0.0000131,18,Female,2020-11-03_12h17.07.875,torte-q,2020.1.3,Win32,60,14127,,,,,,,,,,,,,,,,,,,,,,,,,,,,,,,,,,,,,,,,,,,,
,,,,,,,,,,,,l,1.224905,Incorrect,0,98,98,98,1,t2.png,t4.png,2,0.0591,18,Female,2020-11-03_12h17.07.875,torte-q,2020.1.3,Win32,60,14127,,,,,,,,,,,,,,,,,,,,,,,,,,,,,,,,,,,,,,,,,,,,
,,,,,,,,,,,,a,1.78481,Incorrect,0,99,99,86,1,t3.png,t1.png,2,0.056466,18,Female,2020-11-03_12h17.07.875,torte-q,2020.1.3,Win32,60,14127,,,,,,,,,,,,,,,,,,,,,,,,,,,,,,,,,,,,,,,,,,,,
,,,,,,,,,,,,a,1.43079,Correct!,0,100,100,95,1,t1.png,t1.png,0,0.978,18,Female,2020-11-03_12h17.07.875,torte-q,2020.1.3,Win32,60,14127,,,,,,,,,,,,,,,,,,,,,,,,,,,,,,,,,,,,,,,,,,,,
,,,,,,,,,,,,,,Too slow :(,0,101,101,106,1,t2.png,t3.png,1,0.90855,18,Female,2020-11-03_12h17.07.875,torte-q,2020.1.3,Win32,60,14127,,,,,,,,,,,,,,,,,,,,,,,,,,,,,,,,,,,,,,,,,,,,
,,,,,,,,,,,,l,1.134285,Incorrect,0,102,102,25,1,t5.png,t5.png,0,0.97829,18,Female,2020-11-03_12h17.07.875,torte-q,2020.1.3,Win32,60,14127,,,,,,,,,,,,,,,,,,,,,,,,,,,,,,,,,,,,,,,,,,,,
,,,,,,,,,,,,a,1.31478,Correct!,0,103,103,85,1,t3.png,t2.png,1,0.90855,18,Female,2020-11-03_12h17.07.875,torte-q,2020.1.3,Win32,60,14127,,,,,,,,,,,,,,,,,,,,,,,,,,,,,,,,,,,,,,,,,,,,
,,,,,,,,,,,,a,1.07717,Correct!,0,104,104,96,1,t1.png,t1.png,0,0.97829,18,Female,2020-11-03_12h17.07.875,torte-q,2020.1.3,Win32,60,14127,,,,,,,,,,,,,,,,,,,,,,,,,,,,,,,,,,,,,,,,,,,,
,,,,,,,,,,,,a,1.78638,Incorrect,0,105,105,17,1,t1.png,t4.png,3,0.0000131,18,Female,2020-11-03_12h17.07.875,torte-q,2020.1.3,Win32,60,14127,,,,,,,,,,,,,,,,,,,,,,,,,,,,,,,,,,,,,,,,,,,,
,,,,,,,,,,,,a,1.519055,Incorrect,0,106,106,87,1,t5.png,t1.png,4,9.55E-11,18,Female,2020-11-03_12h17.07.875,torte-q,2020.1.3,Win32,60,14127,,,,,,,,,,,,,,,,,,,,,,,,,,,,,,,,,,,,,,,,,,,,
,,,,,,,,,,,,l,0.810025,Incorrect,0,107,107,58,1,t5.png,t4.png,1,0.90025,18,Female,2020-11-03_12h17.07.875,torte-q,2020.1.3,Win32,60,14127,,,,,,,,,,,,,,,,,,,,,,,,,,,,,,,,,,,,,,,,,,,,
,,,,,,,,,,,,a,0.818145,Correct!,0,108,108,15,1,t3.png,t2.png,1,0.90855,18,Female,2020-11-03_12h17.07.875,torte-q,2020.1.3,Win32,60,14127,,,,,,,,,,,,,,,,,,,,,,,,,,,,,,,,,,,,,,,,,,,,
,,,,,,,,,,,,a,1.28344,Incorrect,0,109,109,55,1,t2.png,t4.png,2,0.059078,18,Female,2020-11-03_12h17.07.875,torte-q,2020.1.3,Win32,60,14127,,,,,,,,,,,,,,,,,,,,,,,,,,,,,,,,,,,,,,,,,,,,
,,,,,,,,,,,,l,0.82566,Correct!,0,110,110,103,1,t3.png,t1.png,2,0.056466,18,Female,2020-11-03_12h17.07.875,torte-q,2020.1.3,Win32,60,14127,,,,,,,,,,,,,,,,,,,,,,,,,,,,,,,,,,,,,,,,,,,,
,,,,,,,,,,,,l,1.550785,Incorrect,0,111,111,116,1,t5.png,t4.png,1,0.90025,18,Female,2020-11-03_12h17.07.875,torte-q,2020.1.3,Win32,60,14127,,,,,,,,,,,,,,,,,,,,,,,,,,,,,,,,,,,,,,,,,,,,
,,,,,,,,,,,,a,0.748035,Incorrect,0,112,112,6,1,t1.png,t4.png,3,0.0000131,18,Female,2020-11-03_12h17.07.875,torte-q,2020.1.3,Win32,60,14127,,,,,,,,,,,,,,,,,,,,,,,,,,,,,,,,,,,,,,,,,,,,
,,,,,,,,,,,,a,0.59014,Correct!,0,113,113,112,1,t1.png,t1.png,0,0.97829,18,Female,2020-11-03_12h17.07.875,torte-q,2020.1.3,Win32,60,14127,,,,,,,,,,,,,,,,,,,,,,,,,,,,,,,,,,,,,,,,,,,,
,,,,,,,,,,,,a,1.082585,Correct!,0,114,114,2,1,t3.png,t2.png,1,0.90855,18,Female,2020-11-03_12h17.07.875,torte-q,2020.1.3,Win32,60,14127,,,,,,,,,,,,,,,,,,,,,,,,,,,,,,,,,,,,,,,,,,,,
,,,,,,,,,,,,a,1.25204,Correct!,0,115,115,74,1,t5.png,t4.png,1,0.9,18,Female,2020-11-03_12h17.07.875,torte-q,2020.1.3,Win32,60,14127,,,,,,,,,,,,,,,,,,,,,,,,,,,,,,,,,,,,,,,,,,,,
,,,,,,,,,,,,l,1.136815,Correct!,0,116,116,80,1,t1.png,t4.png,3,0.0000131,18,Female,2020-11-03_12h17.07.875,torte-q,2020.1.3,Win32,60,14127,,,,,,,,,,,,,,,,,,,,,,,,,,,,,,,,,,,,,,,,,,,,
,,,,,,,,,,,,a,0.63768,Correct!,0,117,117,42,1,t5.png,t4.png,1,0.90025,18,Female,2020-11-03_12h17.07.875,torte-q,2020.1.3,Win32,60,14127,,,,,,,,,,,,,,,,,,,,,,,,,,,,,,,,,,,,,,,,,,,,
,,,,,,,,,,,,a,0.916535,Correct!,0,118,118,32,1,t4.png,t5.png,1,0.90025,18,Female,2020-11-03_12h17.07.875,torte-q,2020.1.3,Win32,60,14127,,,,,,,,,,,,,,,,,,,,,,,,,,,,,,,,,,,,,,,,,,,,
,,,,,,,,,,,,l,0.885,Correct!,0,119,119,24,1,t4.png,t2.png,2,0.059078,18,Female,2020-11-03_12h17.07.875,torte-q,2020.1.3,Win32,60,14127,,,,,,,,,,,,,,,,,,,,,,,,,,,,,,,,,,,,,,,,,,,,
,,,,,,,,,,,,l,1.34697,Correct!,,,,,,t3.png,t5.png,2,0.056466,18,Female,2020-11-03_12h17.07.875,torte-q,2020.1.3,Win32,60,14127,space,2.313565,space,83.05691,0,0,0,6,1,,,,,,,,,,,,,,,,,,,,,,,,,,,,,,,,,,,
,,,,,,,,,,,,a,1.20881,Correct!,,,,,,t1.png,t1.png,0,0.978,18,Female,2020-11-03_12h17.07.875,torte-q,2020.1.3,Win32,60,14127,,,,,0,1,1,54,1,,,,,,,,,,,,,,,,,,,,,,,,,,,,,,,,,,,
,,,,,,,,,,,,a,1.006045,Incorrect,,,,,,t4.png,t1.png,3,0.0000131,18,Female,2020-11-03_12h17.07.875,torte-q,2020.1.3,Win32,60,14127,,,,,0,2,2,93,1,,,,,,,,,,,,,,,,,,,,,,,,,,,,,,,,,,,
,,,,,,,,,,,,l,1.08827,Correct!,,,,,,t1.png,t5.png,4,9.55E-11,18,Female,2020-11-03_12h17.07.875,torte-q,2020.1.3,Win32,60,14127,,,,,0,3,3,16,1,,,,,,,,,,,,,,,,,,,,,,,,,,,,,,,,,,,
,,,,,,,,,,,,a,1.258815,Correct!,,,,,,t4.png,t5.png,1,0.90025,18,Female,2020-11-03_12h17.07.875,torte-q,2020.1.3,Win32,60,14127,,,,,0,4,4,47,1,,,,,,,,,,,,,,,,,,,,,,,,,,,,,,,,,,,
,,,,,,,,,,,,a,1.40528,Incorrect,,,,,,t5.png,t2.png,3,0.0000131,18,Female,2020-11-03_12h17.07.875,torte-q,2020.1.3,Win32,60,14127,,,,,0,5,5,116,1,,,,,,,,,,,,,,,,,,,,,,,,,,,,,,,,,,,
,,,,,,,,,,,,a,1.103885,Incorrect,,,,,,t3.png,t1.png,2,0.056466,18,Female,2020-11-03_12h17.07.875,torte-q,2020.1.3,Win32,60,14127,,,,,0,6,6,64,1,,,,,,,,,,,,,,,,,,,,,,,,,,,,,,,,,,,
,,,,,,,,,,,,a,1.29376,Correct!,,,,,,t3.png,t2.png,1,0.90855,18,Female,2020-11-03_12h17.07.875,torte-q,2020.1.3,Win32,60,14127,,,,,0,7,7,97,1,,,,,,,,,,,,,,,,,,,,,,,,,,,,,,,,,,,
,,,,,,,,,,,,a,1.22286,Correct!,,,,,,t5.png,t5.png,0,0.97829,18,Female,2020-11-03_12h17.07.875,torte-q,2020.1.3,Win32,60,14127,,,,,0,8,8,25,1,,,,,,,,,,,,,,,,,,,,,,,,,,,,,,,,,,,
,,,,,,,,,,,,l,0.87601,Incorrect,,,,,,t1.png,t2.png,1,0.90025,18,Female,2020-11-03_12h17.07.875,torte-q,2020.1.3,Win32,60,14127,,,,,0,9,9,33,1,,,,,,,,,,,,,,,,,,,,,,,,,,,,,,,,,,,
,,,,,,,,,,,,a,1.21468,Correct!,,,,,,t5.png,t5.png,0,0.97829,18,Female,2020-11-03_12h17.07.875,torte-q,2020.1.3,Win32,60,14127,,,,,0,10,10,94,1,,,,,,,,,,,,,,,,,,,,,,,,,,,,,,,,,,,
,,,,,,,,,,,,a,1.185775,Correct!,,,,,,t4.png,t2.png,2,0.059078,18,Female,2020-11-03_12h17.07.875,torte-q,2020.1.3,Win32,60,14127,,,,,0,11,11,109,1,,,,,,,,,,,,,,,,,,,,,,,,,,,,,,,,,,,
,,,,,,,,,,,,l,1.19322,Incorrect,,,,,,t2.png,t3.png,1,0.90855,18,Female,2020-11-03_12h17.07.875,torte-q,2020.1.3,Win32,60,14127,,,,,0,12,12,10,1,,,,,,,,,,,,,,,,,,,,,,,,,,,,,,,,,,,
,,,,,,,,,,,,a,0.703345,Incorrect,,,,,,t5.png,t1.png,4,9.55E-11,18,Female,2020-11-03_12h17.07.875,torte-q,2020.1.3,Win32,60,14127,,,,,0,13,13,100,1,,,,,,,,,,,,,,,,,,,,,,,,,,,,,,,,,,,
,,,,,,,,,,,,a,1.2152,Incorrect,,,,,,t5.png,t3.png,2,0.056466,18,Female,2020-11-03_12h17.07.875,torte-q,2020.1.3,Win32,60,14127,,,,,0,14,14,108,1,,,,,,,,,,,,,,,,,,,,,,,,,,,,,,,,,,,
,,,,,,,,,,,,a,0.772245,Incorrect,,,,,,t4.png,t1.png,3,0.0000131,18,Female,2020-11-03_12h17.07.875,torte-q,2020.1.3,Win32,60,14127,,,,,0,15,15,48,1,,,,,,,,,,,,,,,,,,,,,,,,,,,,,,,,,,,
,,,,,,,,,,,,a,1.272805,Correct!,,,,,,t4.png,t4.png,0,0.98115,18,Female,2020-11-03_12h17.07.875,torte-q,2020.1.3,Win32,60,14127,,,,,0,16,16,90,1,,,,,,,,,,,,,,,,,,,,,,,,,,,,,,,,,,,
,,,,,,,,,,,,l,0.77671,Incorrect,,,,,,t4.png,t4.png,0,0.98115,18,Female,2020-11-03_12h17.07.875,torte-q,2020.1.3,Win32,60,14127,,,,,0,17,17,52,1,,,,,,,,,,,,,,,,,,,,,,,,,,,,,,,,,,,
,,,,,,,,,,,,a,1.22002,Correct!,,,,,,t2.png,t1.png,1,0.9,18,Female,2020-11-03_12h17.07.875,torte-q,2020.1.3,Win32,60,14127,,,,,0,18,18,118,1,,,,,,,,,,,,,,,,,,,,,,,,,,,,,,,,,,,
,,,,,,,,,,,,l,0.704395,Incorrect,,,,,,t1.png,t2.png,1,0.90025,18,Female,2020-11-03_12h17.07.875,torte-q,2020.1.3,Win32,60,14127,,,,,0,19,19,112,1,,,,,,,,,,,,,,,,,,,,,,,,,,,,,,,,,,,
,,,,,,,,,,,,a,0.7676,Correct!,,,,,,t1.png,t1.png,0,0.97829,18,Female,2020-11-03_12h17.07.875,torte-q,2020.1.3,Win32,60,14127,,,,,0,20,20,78,1,,,,,,,,,,,,,,,,,,,,,,,,,,,,,,,,,,,
,,,,,,,,,,,,l,0.63366,Incorrect,,,,,,t1.png,t2.png,1,0.90025,18,Female,2020-11-03_12h17.07.875,torte-q,2020.1.3,Win32,60,14127,,,,,0,21,21,105,1,,,,,,,,,,,,,,,,,,,,,,,,,,,,,,,,,,,
,,,,,,,,,,,,a,0.98018,Correct!,,,,,,t3.png,t2.png,1,0.90855,18,Female,2020-11-03_12h17.07.875,torte-q,2020.1.3,Win32,60,14127,,,,,0,22,22,18,1,,,,,,,,,,,,,,,,,,,,,,,,,,,,,,,,,,,
,,,,,,,,,,,,a,0.708275,Incorrect,,,,,,t5.png,t1.png,4,9.55E-11,18,Female,2020-11-03_12h17.07.875,torte-q,2020.1.3,Win32,60,14127,,,,,0,23,23,71,1,,,,,,,,,,,,,,,,,,,,,,,,,,,,,,,,,,,
,,,,,,,,,,,,a,0.7812,Correct!,,,,,,t2.png,t1.png,1,0.90025,18,Female,2020-11-03_12h17.07.875,torte-q,2020.1.3,Win32,60,14127,,,,,0,24,24,5,1,,,,,,,,,,,,,,,,,,,,,,,,,,,,,,,,,,,
,,,,,,,,,,,,a,0.672125,Incorrect,,,,,,t3.png,t1.png,2,0.056466,18,Female,2020-11-03_12h17.07.875,torte-q,2020.1.3,Win32,60,14127,,,,,0,25,25,0,1,,,,,,,,,,,,,,,,,,,,,,,,,,,,,,,,,,,
,,,,,,,,,,,,a,0.798325,Correct!,,,,,,t5.png,t5.png,0,0.97829,18,Female,2020-11-03_12h17.07.875,torte-q,2020.1.3,Win32,60,14127,,,,,0,26,26,70,1,,,,,,,,,,,,,,,,,,,,,,,,,,,,,,,,,,,
,,,,,,,,,,,,l,0.88454,Incorrect,,,,,,t3.png,t2.png,1,0.909,18,Female,2020-11-03_12h17.07.875,torte-q,2020.1.3,Win32,60,14127,,,,,0,27,27,3,1,,,,,,,,,,,,,,,,,,,,,,,,,,,,,,,,,,,
,,,,,,,,,,,,a,0.954225,Correct!,,,,,,t4.png,t4.png,0,0.98115,18,Female,2020-11-03_12h17.07.875,torte-q,2020.1.3,Win32,60,14127,,,,,0,28,28,21,1,,,,,,,,,,,,,,,,,,,,,,,,,,,,,,,,,,,
,,,,,,,,,,,,l,0.83764,Correct!,,,,,,t2.png,t5.png,3,0.0000131,18,Female,2020-11-03_12h17.07.875,torte-q,2020.1.3,Win32,60,14127,,,,,0,29,29,95,1,,,,,,,,,,,,,,,,,,,,,,,,,,,,,,,,,,,
,,,,,,,,,,,,a,0.623755,Incorrect,,,,,,t3.png,t1.png,2,0.0565,18,Female,2020-11-03_12h17.07.875,torte-q,2020.1.3,Win32,60,14127,,,,,0,30,30,31,1,,,,,,,,,,,,,,,,,,,,,,,,,,,,,,,,,,,
,,,,,,,,,,,,a,0.687615,Incorrect,,,,,,t4.png,t3.png,1,0.90855,18,Female,2020-11-03_12h17.07.875,torte-q,2020.1.3,Win32,60,14127,,,,,0,31,31,75,1,,,,,,,,,,,,,,,,,,,,,,,,,,,,,,,,,,,
,,,,,,,,,,,,a,0.831255,Correct!,,,,,,t5.png,t5.png,0,0.978,18,Female,2020-11-03_12h17.07.875,torte-q,2020.1.3,Win32,60,14127,,,,,0,32,32,117,1,,,,,,,,,,,,,,,,,,,,,,,,,,,,,,,,,,,
,,,,,,,,,,,,a,0.70225,Incorrect,,,,,,t5.png,t3.png,2,0.056466,18,Female,2020-11-03_12h17.07.875,torte-q,2020.1.3,Win32,60,14127,,,,,0,33,33,56,1,,,,,,,,,,,,,,,,,,,,,,,,,,,,,,,,,,,
,,,,,,,,,,,,l,0.670115,Incorrect,,,,,,t1.png,t2.png,1,0.90025,18,Female,2020-11-03_12h17.07.875,torte-q,2020.1.3,Win32,60,14127,,,,,0,34,34,72,1,,,,,,,,,,,,,,,,,,,,,,,,,,,,,,,,,,,
,,,,,,,,,,,,a,0.615205,Correct!,,,,,,t2.png,t2.png,0,0.98115,18,Female,2020-11-03_12h17.07.875,torte-q,2020.1.3,Win32,60,14127,,,,,0,35,35,7,1,,,,,,,,,,,,,,,,,,,,,,,,,,,,,,,,,,,
,,,,,,,,,,,,l,0.66429,Correct!,,,,,,t1.png,t3.png,2,0.056466,18,Female,2020-11-03_12h17.07.875,torte-q,2020.1.3,Win32,60,14127,,,,,0,36,36,63,1,,,,,,,,,,,,,,,,,,,,,,,,,,,,,,,,,,,
,,,,,,,,,,,,l,0.632025,Correct!,,,,,,t1.png,t3.png,2,0.056466,18,Female,2020-11-03_12h17.07.875,torte-q,2020.1.3,Win32,60,14127,,,,,0,37,37,99,1,,,,,,,,,,,,,,,,,,,,,,,,,,,,,,,,,,,
,,,,,,,,,,,,l,0.725815,Correct!,,,,,,t1.png,t5.png,4,9.55E-11,18,Female,2020-11-03_12h17.07.875,torte-q,2020.1.3,Win32,60,14127,,,,,0,38,38,55,1,,,,,,,,,,,,,,,,,,,,,,,,,,,,,,,,,,,
,,,,,,,,,,,,a,0.7908,Correct!,,,,,,t2.png,t2.png,0,0.981,18,Female,2020-11-03_12h17.07.875,torte-q,2020.1.3,Win32,60,14127,,,,,0,39,39,101,1,,,,,,,,,,,,,,,,,,,,,,,,,,,,,,,,,,,
,,,,,,,,,,,,a,1.00386,Incorrect,,,,,,t4.png,t2.png,2,0.059078,18,Female,2020-11-03_12h17.07.875,torte-q,2020.1.3,Win32,60,14127,,,,,0,40,40,86,1,,,,,,,,,,,,,,,,,,,,,,,,,,,,,,,,,,,
,,,,,,,,,,,,l,0.798165,Incorrect,,,,,,t2.png,t3.png,1,0.90855,18,Female,2020-11-03_12h17.07.875,torte-q,2020.1.3,Win32,60,14127,,,,,0,41,41,111,1,,,,,,,,,,,,,,,,,,,,,,,,,,,,,,,,,,,
,,,,,,,,,,,,a,0.622325,Correct!,,,,,,t5.png,t5.png,0,0.97829,18,Female,2020-11-03_12h17.07.875,torte-q,2020.1.3,Win32,60,14127,,,,,0,42,42,73,1,,,,,,,,,,,,,,,,,,,,,,,,,,,,,,,,,,,
,,,,,,,,,,,,a,0.58391,Correct!,,,,,,t5.png,t4.png,1,0.9,18,Female,2020-11-03_12h17.07.875,torte-q,2020.1.3,Win32,60,14127,,,,,0,43,43,49,1,,,,,,,,,,,,,,,,,,,,,,,,,,,,,,,,,,,
,,,,,,,,,,,,a,1.13494,Incorrect,,,,,,t3.png,t5.png,2,0.0565,18,Female,2020-11-03_12h17.07.875,torte-q,2020.1.3,Win32,60,14127,,,,,0,44,44,30,1,,,,,,,,,,,,,,,,,,,,,,,,,,,,,,,,,,,
,,,,,,,,,,,,l,1.115985,Incorrect,,,,,,t4.png,t3.png,1,0.909,18,Female,2020-11-03_12h17.07.875,torte-q,2020.1.3,Win32,60,14127,,,,,0,45,45,46,1,,,,,,,,,,,,,,,,,,,,,,,,,,,,,,,,,,,
,,,,,,,,,,,,l,0.8151,Correct!,,,,,,t2.png,t4.png,2,0.059078,18,Female,2020-11-03_12h17.07.875,torte-q,2020.1.3,Win32,60,14127,,,,,0,46,46,37,1,,,,,,,,,,,,,,,,,,,,,,,,,,,,,,,,,,,
,,,,,,,,,,,,a,0.66501,Correct!,,,,,,t2.png,t2.png,0,0.98115,18,Female,2020-11-03_12h17.07.875,torte-q,2020.1.3,Win32,60,14127,,,,,0,47,47,57,1,,,,,,,,,,,,,,,,,,,,,,,,,,,,,,,,,,,
,,,,,,,,,,,,a,0.78173,Incorrect,,,,,,t5.png,t2.png,3,0.0000131,18,Female,2020-11-03_12h17.07.875,torte-q,2020.1.3,Win32,60,14127,,,,,0,48,48,98,1,,,,,,,,,,,,,,,,,,,,,,,,,,,,,,,,,,,
,,,,,,,,,,,,l,0.8574,Incorrect,,,,,,t2.png,t3.png,1,0.909,18,Female,2020-11-03_12h17.07.875,torte-q,2020.1.3,Win32,60,14127,,,,,0,49,49,74,1,,,,,,,,,,,,,,,,,,,,,,,,,,,,,,,,,,,
,,,,,,,,,,,,a,0.78205,Incorrect,,,,,,t5.png,t2.png,3,0.0000131,18,Female,2020-11-03_12h17.07.875,torte-q,2020.1.3,Win32,60,14127,,,,,0,50,50,91,1,,,,,,,,,,,,,,,,,,,,,,,,,,,,,,,,,,,
,,,,,,,,,,,,l,1.13451,Incorrect,,,,,,t2.png,t3.png,1,0.90855,18,Female,2020-11-03_12h17.07.875,torte-q,2020.1.3,Win32,60,14127,,,,,0,51,51,65,1,,,,,,,,,,,,,,,,,,,,,,,,,,,,,,,,,,,
,,,,,,,,,,,,a,0.89852,Correct!,,,,,,t5.png,t4.png,1,0.90025,18,Female,2020-11-03_12h17.07.875,torte-q,2020.1.3,Win32,60,14127,,,,,0,52,52,27,1,,,,,,,,,,,,,,,,,,,,,,,,,,,,,,,,,,,
,,,,,,,,,,,,a,0.973265,Incorrect,,,,,,t4.png,t2.png,2,0.059078,18,Female,2020-11-03_12h17.07.875,torte-q,2020.1.3,Win32,60,14127,,,,,0,53,53,88,1,,,,,,,,,,,,,,,,,,,,,,,,,,,,,,,,,,,
,,,,,,,,,,,,l,1.017615,Incorrect,,,,,,t1.png,t1.png,0,0.97829,18,Female,2020-11-03_12h17.07.875,torte-q,2020.1.3,Win32,60,14127,,,,,0,54,54,9,1,,,,,,,,,,,,,,,,,,,,,,,,,,,,,,,,,,,
,,,,,,,,,,,,a,1.089945,Correct!,,,,,,t3.png,t2.png,1,0.909,18,Female,2020-11-03_12h17.07.875,torte-q,2020.1.3,Win32,60,14127,,,,,0,55,55,23,1,,,,,,,,,,,,,,,,,,,,,,,,,,,,,,,,,,,
,,,,,,,,,,,,a,0.8738,Incorrect,,,,,,t5.png,t2.png,3,0.0000131,18,Female,2020-11-03_12h17.07.875,torte-q,2020.1.3,Win32,60,14127,,,,,0,56,56,51,1,,,,,,,,,,,,,,,,,,,,,,,,,,,,,,,,,,,
,,,,,,,,,,,,a,0.623305,Incorrect,,,,,,t1.png,t4.png,3,0.0000131,18,Female,2020-11-03_12h17.07.875,torte-q,2020.1.3,Win32,60,14127,,,,,0,57,57,17,1,,,,,,,,,,,,,,,,,,,,,,,,,,,,,,,,,,,
,,,,,,,,,,,,a,0.534715,Incorrect,,,,,,t1.png,t4.png,3,0.0000131,18,Female,2020-11-03_12h17.07.875,torte-q,2020.1.3,Win32,60,14127,,,,,0,58,58,50,1,,,,,,,,,,,,,,,,,,,,,,,,,,,,,,,,,,,
,,,,,,,,,,,,a,0.803815,Incorrect,,,,,,t1.png,t5.png,4,9.55E-11,18,Female,2020-11-03_12h17.07.875,torte-q,2020.1.3,Win32,60,14127,,,,,0,59,59,85,1,,,,,,,,,,,,,,,,,,,,,,,,,,,,,,,,,,,
,,,,,,,,,,,,a,0.998065,Correct!,,,,,,t3.png,t2.png,1,0.90855,18,Female,2020-11-03_12h17.07.875,torte-q,2020.1.3,Win32,60,14127,,,,,0,60,60,53,1,,,,,,,,,,,,,,,,,,,,,,,,,,,,,,,,,,,
,,,,,,,,,,,,a,1.358525,Correct!,,,,,,t2.png,t3.png,1,0.90855,18,Female,2020-11-03_12h17.07.875,torte-q,2020.1.3,Win32,60,14127,,,,,0,61,61,68,1,,,,,,,,,,,,,,,,,,,,,,,,,,,,,,,,,,,
,,,,,,,,,,,,l,0.83123,Incorrect,,,,,,t1.png,t1.png,0,0.97829,18,Female,2020-11-03_12h17.07.875,torte-q,2020.1.3,Win32,60,14127,,,,,0,62,62,67,1,,,,,,,,,,,,,,,,,,,,,,,,,,,,,,,,,,,
,,,,,,,,,,,,a,0.75947,Correct!,,,,,,t2.png,t4.png,2,0.059078,18,Female,2020-11-03_12h17.07.875,torte-q,2020.1.3,Win32,60,14127,,,,,0,63,63,24,1,,,,,,,,,,,,,,,,,,,,,,,,,,,,,,,,,,,
,,,,,,,,,,,,a,0.736215,Incorrect,,,,,,t2.png,t5.png,3,0.0000131,18,Female,2020-11-03_12h17.07.875,torte-q,2020.1.3,Win32,60,14127,,,,,0,64,64,40,1,,,,,,,,,,,,,,,,,,,,,,,,,,,,,,,,,,,
,,,,,,,,,,,,a,1.24092,Incorrect,,,,,,t5.png,t2.png,3,0.0000131,18,Female,2020-11-03_12h17.07.875,torte-q,2020.1.3,Win32,60,14127,,,,,0,65,65,119,1,,,,,,,,,,,,,,,,,,,,,,,,,,,,,,,,,,,
,,,,,,,,,,,,l,1.214415,Incorrect,,,,,,t2.png,t1.png,1,0.90025,18,Female,2020-11-03_12h17.07.875,torte-q,2020.1.3,Win32,60,14127,,,,,0,66,66,62,1,,,,,,,,,,,,,,,,,,,,,,,,,,,,,,,,,,,
,,,,,,,,,,,,a,0.771075,Incorrect,,,,,,t1.png,t4.png,3,0.0000131,18,Female,2020-11-03_12h17.07.875,torte-q,2020.1.3,Win32,60,14127,,,,,0,67,67,92,1,,,,,,,,,,,,,,,,,,,,,,,,,,,,,,,,,,,
,,,,,,,,,,,,l,1.41992,Correct!,,,,,,t4.png,t3.png,1,0.90855,18,Female,2020-11-03_12h17.07.875,torte-q,2020.1.3,Win32,60,14127,,,,,0,68,68,45,1,,,,,,,,,,,,,,,,,,,,,,,,,,,,,,,,,,,
,,,,,,,,,,,,a,0.981315,Correct!,,,,,,t4.png,t3.png,1,0.90855,18,Female,2020-11-03_12h17.07.875,torte-q,2020.1.3,Win32,60,14127,,,,,0,69,69,35,1,,,,,,,,,,,,,,,,,,,,,,,,,,,,,,,,,,,
,,,,,,,,,,,,l,0.715915,Correct!,,,,,,t3.png,t5.png,2,0.0565,18,Female,2020-11-03_12h17.07.875,torte-q,2020.1.3,Win32,60,14127,,,,,0,70,70,83,1,,,,,,,,,,,,,,,,,,,,,,,,,,,,,,,,,,,
,,,,,,,,,,,,a,0.63956,Incorrect,,,,,,t1.png,t3.png,2,0.056466,18,Female,2020-11-03_12h17.07.875,torte-q,2020.1.3,Win32,60,14127,,,,,0,71,71,60,1,,,,,,,,,,,,,,,,,,,,,,,,,,,,,,,,,,,
,,,,,,,,,,,,l,1.01538,Correct!,,,,,,t4.png,t1.png,3,0.0000131,18,Female,2020-11-03_12h17.07.875,torte-q,2020.1.3,Win32,60,14127,,,,,0,72,72,61,1,,,,,,,,,,,,,,,,,,,,,,,,,,,,,,,,,,,
,,,,,,,,,,,,l,1.000505,Incorrect,,,,,,t2.png,t2.png,0,0.98115,18,Female,2020-11-03_12h17.07.875,torte-q,2020.1.3,Win32,60,14127,,,,,0,73,73,59,1,,,,,,,,,,,,,,,,,,,,,,,,,,,,,,,,,,,
,,,,,,,,,,,,a,1.133435,Incorrect,,,,,,t2.png,t4.png,2,0.059078,18,Female,2020-11-03_12h17.07.875,torte-q,2020.1.3,Win32,60,14127,,,,,0,74,74,11,1,,,,,,,,,,,,,,,,,,,,,,,,,,,,,,,,,,,
,,,,,,,,,,,,a,0.99313,Incorrect,,,,,,t5.png,t1.png,4,9.55E-11,18,Female,2020-11-03_12h17.07.875,torte-q,2020.1.3,Win32,60,14127,,,,,0,75,75,102,1,,,,,,,,,,,,,,,,,,,,,,,,,,,,,,,,,,,
,,,,,,,,,,,,a,0.9992,Correct!,,,,,,t3.png,t4.png,1,0.909,18,Female,2020-11-03_12h17.07.875,torte-q,2020.1.3,Win32,60,14127,,,,,0,76,76,82,1,,,,,,,,,,,,,,,,,,,,,,,,,,,,,,,,,,,
,,,,,,,,,,,,l,0.8722,Correct!,,,,,,t4.png,t1.png,3,0.0000131,18,Female,2020-11-03_12h17.07.875,torte-q,2020.1.3,Win32,60,14127,,,,,0,77,77,13,1,,,,,,,,,,,,,,,,,,,,,,,,,,,,,,,,,,,
,,,,,,,,,,,,a,0.95016,Incorrect,,,,,,t3.png,t5.png,2,0.056466,18,Female,2020-11-03_12h17.07.875,torte-q,2020.1.3,Win32,60,14127,,,,,0,78,78,14,1,,,,,,,,,,,,,,,,,,,,,,,,,,,,,,,,,,,
,,,,,,,,,,,,l,1.02015,Incorrect,,,,,,t5.png,t4.png,1,0.90025,18,Female,2020-11-03_12h17.07.875,torte-q,2020.1.3,Win32,60,14127,,,,,0,79,79,26,1,,,,,,,,,,,,,,,,,,,,,,,,,,,,,,,,,,,
,,,,,,,,,,,,a,0.914875,Incorrect,,,,,,t2.png,t5.png,3,0.0000131,18,Female,2020-11-03_12h17.07.875,torte-q,2020.1.3,Win32,60,14127,,,,,0,80,80,8,1,,,,,,,,,,,,,,,,,,,,,,,,,,,,,,,,,,,
,,,,,,,,,,,,a,0.68985,Correct!,,,,,,t1.png,t1.png,0,0.978,18,Female,2020-11-03_12h17.07.875,torte-q,2020.1.3,Win32,60,14127,,,,,0,81,81,28,1,,,,,,,,,,,,,,,,,,,,,,,,,,,,,,,,,,,
,,,,,,,,,,,,a,1.231745,Incorrect,,,,,,t2.png,t1.png,1,0.90025,18,Female,2020-11-03_12h17.07.875,torte-q,2020.1.3,Win32,60,14127,,,,,0,82,82,19,1,,,,,,,,,,,,,,,,,,,,,,,,,,,,,,,,,,,
,,,,,,,,,,,,l,0.85579,Correct!,,,,,,t5.png,t3.png,2,0.056466,18,Female,2020-11-03_12h17.07.875,torte-q,2020.1.3,Win32,60,14127,,,,,0,83,83,38,1,,,,,,,,,,,,,,,,,,,,,,,,,,,,,,,,,,,
,,,,,,,,,,,,a,0.651145,Incorrect,,,,,,t2.png,t5.png,3,0.0000131,18,Female,2020-11-03_12h17.07.875,torte-q,2020.1.3,Win32,60,14127,,,,,0,84,84,66,1,,,,,,,,,,,,,,,,,,,,,,,,,,,,,,,,,,,
,,,,,,,,,,,,a,0.714615,Correct!,,,,,,t1.png,t2.png,1,0.9,18,Female,2020-11-03_12h17.07.875,torte-q,2020.1.3,Win32,60,14127,,,,,0,85,85,1,1,,,,,,,,,,,,,,,,,,,,,,,,,,,,,,,,,,,
,,,,,,,,,,,,l,1.164845,Incorrect,,,,,,t2.png,t2.png,0,0.98115,18,Female,2020-11-03_12h17.07.875,torte-q,2020.1.3,Win32,60,14127,,,,,0,86,86,2,1,,,,,,,,,,,,,,,,,,,,,,,,,,,,,,,,,,,
,,,,,,,,,,,,l,0.932105,Correct!,,,,,,t5.png,t3.png,2,0.0565,18,Female,2020-11-03_12h17.07.875,torte-q,2020.1.3,Win32,60,14127,,,,,0,87,87,39,1,,,,,,,,,,,,,,,,,,,,,,,,,,,,,,,,,,,
,,,,,,,,,,,,a,0.739895,Incorrect,,,,,,t1.png,t4.png,3,0.0000131,18,Female,2020-11-03_12h17.07.875,torte-q,2020.1.3,Win32,60,14127,,,,,0,88,88,107,1,,,,,,,,,,,,,,,,,,,,,,,,,,,,,,,,,,,
,,,,,,,,,,,,l,0.859475,Correct!,,,,,,t4.png,t2.png,2,0.059078,18,Female,2020-11-03_12h17.07.875,torte-q,2020.1.3,Win32,60,14127,,,,,0,89,89,110,1,,,,,,,,,,,,,,,,,,,,,,,,,,,,,,,,,,,
,,,,,,,,,,,,l,0.938185,Correct!,,,,,,t5.png,t1.png,4,9.55E-11,18,Female,2020-11-03_12h17.07.875,torte-q,2020.1.3,Win32,60,14127,,,,,0,90,90,22,1,,,,,,,,,,,,,,,,,,,,,,,,,,,,,,,,,,,
,,,,,,,,,,,,a,0.63412,Incorrect,,,,,,t1.png,t4.png,3,0.0000131,18,Female,2020-11-03_12h17.07.875,torte-q,2020.1.3,Win32,60,14127,,,,,0,91,91,81,1,,,,,,,,,,,,,,,,,,,,,,,,,,,,,,,,,,,
,,,,,,,,,,,,a,0.73128,Incorrect,,,,,,t1.png,t3.png,2,0.056466,18,Female,2020-11-03_12h17.07.875,torte-q,2020.1.3,Win32,60,14127,,,,,0,92,92,87,1,,,,,,,,,,,,,,,,,,,,,,,,,,,,,,,,,,,
,,,,,,,,,,,,a,0.69896,Correct!,,,,,,t3.png,t4.png,1,0.909,18,Female,2020-11-03_12h17.07.875,torte-q,2020.1.3,Win32,60,14127,,,,,0,93,93,89,1,,,,,,,,,,,,,,,,,,,,,,,,,,,,,,,,,,,
,,,,,,,,,,,,l,0.780355,Correct!,,,,,,t5.png,t3.png,2,0.056466,18,Female,2020-11-03_12h17.07.875,torte-q,2020.1.3,Win32,60,14127,,,,,0,94,94,114,1,,,,,,,,,,,,,,,,,,,,,,,,,,,,,,,,,,,
,,,,,,,,,,,,a,0.58142,Correct!,,,,,,t4.png,t5.png,1,0.9,18,Female,2020-11-03_12h17.07.875,torte-q,2020.1.3,Win32,60,14127,,,,,0,95,95,115,1,,,,,,,,,,,,,,,,,,,,,,,,,,,,,,,,,,,
,,,,,,,,,,,,a,0.68138,Incorrect,,,,,,t4.png,t5.png,1,0.90025,18,Female,2020-11-03_12h17.07.875,torte-q,2020.1.3,Win32,60,14127,,,,,0,96,96,103,1,,,,,,,,,,,,,,,,,,,,,,,,,,,,,,,,,,,
,,,,,,,,,,,,l,0.865015,Incorrect,,,,,,t5.png,t4.png,1,0.9,18,Female,2020-11-03_12h17.07.875,torte-q,2020.1.3,Win32,60,14127,,,,,0,97,97,76,1,,,,,,,,,,,,,,,,,,,,,,,,,,,,,,,,,,,
,,,,,,,,,,,,a,0.474195,Incorrect,,,,,,t1.png,t5.png,4,9.55E-11,18,Female,2020-11-03_12h17.07.875,torte-q,2020.1.3,Win32,60,14127,,,,,0,98,98,41,1,,,,,,,,,,,,,,,,,,,,,,,,,,,,,,,,,,,
,,,,,,,,,,,,l,0.600195,Correct!,,,,,,t1.png,t3.png,2,0.056466,18,Female,2020-11-03_12h17.07.875,torte-q,2020.1.3,Win32,60,14127,,,,,0,99,99,69,1,,,,,,,,,,,,,,,,,,,,,,,,,,,,,,,,,,,
,,,,,,,,,,,,a,0.552145,Correct!,,,,,,t3.png,t4.png,1,0.90855,18,Female,2020-11-03_12h17.07.875,torte-q,2020.1.3,Win32,60,14127,,,,,0,100,100,84,1,,,,,,,,,,,,,,,,,,,,,,,,,,,,,,,,,,,
,,,,,,,,,,,,a,0.47535,Incorrect,,,,,,t2.png,t5.png,3,0.0000131,18,Female,2020-11-03_12h17.07.875,torte-q,2020.1.3,Win32,60,14127,,,,,0,101,101,104,1,,,,,,,,,,,,,,,,,,,,,,,,,,,,,,,,,,,
,,,,,,,,,,,,l,0.69285,Correct!,,,,,,t4.png,t2.png,2,0.0591,18,Female,2020-11-03_12h17.07.875,torte-q,2020.1.3,Win32,60,14127,,,,,0,102,102,36,1,,,,,,,,,,,,,,,,,,,,,,,,,,,,,,,,,,,
,,,,,,,,,,,,a,0.72217,Correct!,,,,,,t4.png,t5.png,1,0.90025,18,Female,2020-11-03_12h17.07.875,torte-q,2020.1.3,Win32,60,14127,,,,,0,103,103,58,1,,,,,,,,,,,,,,,,,,,,,,,,,,,,,,,,,,,
,,,,,,,,,,,,l,0.65707,Incorrect,,,,,,t5.png,t4.png,1,0.90025,18,Female,2020-11-03_12h17.07.875,torte-q,2020.1.3,Win32,60,14127,,,,,0,104,104,34,1,,,,,,,,,,,,,,,,,,,,,,,,,,,,,,,,,,,
,,,,,,,,,,,,a,0.442735,Incorrect,,,,,,t3.png,t5.png,2,0.056466,18,Female,2020-11-03_12h17.07.875,torte-q,2020.1.3,Win32,60,14127,,,,,0,105,105,44,1,,,,,,,,,,,,,,,,,,,,,,,,,,,,,,,,,,,
,,,,,,,,,,,,l,0.631675,Incorrect,,,,,,t4.png,t3.png,1,0.909,18,Female,2020-11-03_12h17.07.875,torte-q,2020.1.3,Win32,60,14127,,,,,0,106,106,20,1,,,,,,,,,,,,,,,,,,,,,,,,,,,,,,,,,,,
,,,,,,,,,,,,a,0.7733,Correct!,,,,,,t4.png,t4.png,0,0.98115,18,Female,2020-11-03_12h17.07.875,torte-q,2020.1.3,Win32,60,14127,,,,,0,107,107,80,1,,,,,,,,,,,,,,,,,,,,,,,,,,,,,,,,,,,
,,,,,,,,,,,,a,0.975795,Correct!,,,,,,t3.png,t4.png,1,0.909,18,Female,2020-11-03_12h17.07.875,torte-q,2020.1.3,Win32,60,14127,,,,,0,108,108,106,1,,,,,,,,,,,,,,,,,,,,,,,,,,,,,,,,,,,
,,,,,,,,,,,,a,0.801775,Correct!,,,,,,t3.png,t4.png,1,0.90855,18,Female,2020-11-03_12h17.07.875,torte-q,2020.1.3,Win32,60,14127,,,,,0,109,109,96,1,,,,,,,,,,,,,,,,,,,,,,,,,,,,,,,,,,,
,,,,,,,,,,,,l,1.05594,Correct!,,,,,,t5.png,t1.png,4,9.55E-11,18,Female,2020-11-03_12h17.07.875,torte-q,2020.1.3,Win32,60,14127,,,,,0,110,110,43,1,,,,,,,,,,,,,,,,,,,,,,,,,,,,,,,,,,,
,,,,,,,,,,,,l,0.83311,Incorrect,,,,,,t4.png,t4.png,0,0.98115,18,Female,2020-11-03_12h17.07.875,torte-q,2020.1.3,Win32,60,14127,,,,,0,111,111,79,1,,,,,,,,,,,,,,,,,,,,,,,,,,,,,,,,,,,
,,,,,,,,,,,,a,0.90144,Incorrect,,,,,,t3.png,t1.png,2,0.056466,18,Female,2020-11-03_12h17.07.875,torte-q,2020.1.3,Win32,60,14127,,,,,0,112,112,29,1,,,,,,,,,,,,,,,,,,,,,,,,,,,,,,,,,,,
,,,,,,,,,,,,l,1.247925,Correct!,,,,,,t4.png,t1.png,3,0.0000131,18,Female,2020-11-03_12h17.07.875,torte-q,2020.1.3,Win32,60,14127,,,,,0,113,113,42,1,,,,,,,,,,,,,,,,,,,,,,,,,,,,,,,,,,,
,,,,,,,,,,,,a,1.02284,Incorrect,,,,,,t2.png,t4.png,2,0.0591,18,Female,2020-11-03_12h17.07.875,torte-q,2020.1.3,Win32,60,14127,,,,,0,114,114,15,1,,,,,,,,,,,,,,,,,,,,,,,,,,,,,,,,,,,
,,,,,,,,,,,,l,0.7888,Incorrect,,,,,,t2.png,t1.png,1,0.90025,18,Female,2020-11-03_12h17.07.875,torte-q,2020.1.3,Win32,60,14127,,,,,0,115,115,4,1,,,,,,,,,,,,,,,,,,,,,,,,,,,,,,,,,,,
,,,,,,,,,,,,a,0.721885,Correct!,,,,,,t4.png,t5.png,1,0.90025,18,Female,2020-11-03_12h17.07.875,torte-q,2020.1.3,Win32,60,14127,,,,,0,116,116,113,1,,,,,,,,,,,,,,,,,,,,,,,,,,,,,,,,,,,
,,,,,,,,,,,,a,0.815135,Incorrect,,,,,,t1.png,t5.png,4,9.55E-11,18,Female,2020-11-03_12h17.07.875,torte-q,2020.1.3,Win32,60,14127,,,,,0,117,117,12,1,,,,,,,,,,,,,,,,,,,,,,,,,,,,,,,,,,,
,,,,,,,,,,,,l,0.981655,Correct!,,,,,,t3.png,t1.png,2,0.056466,18,Female,2020-11-03_12h17.07.875,torte-q,2020.1.3,Win32,60,14127,,,,,0,118,118,32,1,,,,,,,,,,,,,,,,,,,,,,,,,,,,,,,,,,,
,,,,,,,,,,,,a,0.907005,Incorrect,,,,,,t2.png,t4.png,2,0.059078,18,Female,2020-11-03_12h17.07.875,torte-q,2020.1.3,Win32,60,14127,,,,,0,119,119,77,1,,,,,,,,,,,,,,,,,,,,,,,,,,,,,,,,,,,
,,,,,,,,,,,,l,0.800795,Correct!,,,,,,t5.png,t1.png,4,9.55E-11,18,Female,2020-11-03_12h17.07.875,torte-q,2020.1.3,Win32,60,14127,space,1.94317,,,,,,,,space,25.517995,space,2.02651,0,0,0,22,1,,,,,,,,,,,,,,,,,,,,,,,,,,
,,,,,,,,,,,,l,0.900715,Correct!,,,,,,t5.png,t2.png,3,0.0000131,18,Female,2020-11-03_12h17.07.875,torte-q,2020.1.3,Win32,60,14127,,,,,,,,,,,,,,0,1,1,91,1,,,,,,,,,,,,,,,,,,,,,,,,,,
,,,,,,,,,,,,a,0.705805,Correct!,,,,,,t5.png,t5.png,0,0.97829,18,Female,2020-11-03_12h17.07.875,torte-q,2020.1.3,Win32,60,14127,,,,,,,,,,,,,,0,2,2,73,1,,,,,,,,,,,,,,,,,,,,,,,,,,
,,,,,,,,,,,,a,0.852245,Correct!,,,,,,t5.png,t5.png,0,0.97829,18,Female,2020-11-03_12h17.07.875,torte-q,2020.1.3,Win32,60,14127,,,,,,,,,,,,,,0,3,3,70,1,,,,,,,,,,,,,,,,,,,,,,,,,,
,,,,,,,,,,,,l,0.85218,Incorrect,,,,,,t5.png,t4.png,1,0.9,18,Female,2020-11-03_12h17.07.875,torte-q,2020.1.3,Win32,60,14127,,,,,,,,,,,,,,0,4,4,49,1,,,,,,,,,,,,,,,,,,,,,,,,,,
,,,,,,,,,,,,l,1.601445,Incorrect,,,,,,t4.png,t3.png,1,0.909,18,Female,2020-11-03_12h17.07.875,torte-q,2020.1.3,Win32,60,14127,,,,,,,,,,,,,,0,5,5,46,1,,,,,,,,,,,,,,,,,,,,,,,,,,
,,,,,,,,,,,,l,1.201895,Correct!,,,,,,t1.png,t3.png,2,0.056466,18,Female,2020-11-03_12h17.07.875,torte-q,2020.1.3,Win32,60,14127,,,,,,,,,,,,,,0,6,6,99,1,,,,,,,,,,,,,,,,,,,,,,,,,,
,,,,,,,,,,,,a,0.95758,Correct!,,,,,,t4.png,t5.png,1,0.9,18,Female,2020-11-03_12h17.07.875,torte-q,2020.1.3,Win32,60,14127,,,,,,,,,,,,,,0,7,7,115,1,,,,,,,,,,,,,,,,,,,,,,,,,,
,,,,,,,,,,,,a,0.869545,Incorrect,,,,,,t2.png,t5.png,3,0.0000131,18,Female,2020-11-03_12h17.07.875,torte-q,2020.1.3,Win32,60,14127,,,,,,,,,,,,,,0,8,8,95,1,,,,,,,,,,,,,,,,,,,,,,,,,,
,,,,,,,,,,,,l,0.922685,Incorrect,,,,,,t5.png,t3.png,2,0.056466,18,Female,2020-11-03_12h17.07.875,torte-q,2020.1.3,Win32,60,14127,,,,,,,,,,,,,,0,9,9,56,1,,,,,,,,,,,,,,,,,,,,,,,,,,
,,,,,,,,,,,,l,0.985835,Incorrect,,,,,,t4.png,t4.png,0,0.98115,18,Female,2020-11-03_12h17.07.875,torte-q,2020.1.3,Win32,60,14127,,,,,,,,,,,,,,0,10,10,90,1,,,,,,,,,,,,,,,,,,,,,,,,,,
,,,,,,,,,,,,a,1.001715,Correct!,,,,,,t2.png,t1.png,1,0.90025,18,Female,2020-11-03_12h17.07.875,torte-q,2020.1.3,Win32,60,14127,,,,,,,,,,,,,,0,11,11,19,1,,,,,,,,,,,,,,,,,,,,,,,,,,
,,,,,,,,,,,,l,0.9349,Incorrect,,,,,,t4.png,t4.png,0,0.98115,18,Female,2020-11-03_12h17.07.875,torte-q,2020.1.3,Win32,60,14127,,,,,,,,,,,,,,0,12,12,79,1,,,,,,,,,,,,,,,,,,,,,,,,,,
,,,,,,,,,,,,a,0.85154,Incorrect,,,,,,t1.png,t4.png,3,0.0000131,18,Female,2020-11-03_12h17.07.875,torte-q,2020.1.3,Win32,60,14127,,,,,,,,,,,,,,0,13,13,81,1,,,,,,,,,,,,,,,,,,,,,,,,,,
,,,,,,,,,,,,a,0.722335,Correct!,,,,,,t3.png,t4.png,1,0.909,18,Female,2020-11-03_12h17.07.875,torte-q,2020.1.3,Win32,60,14127,,,,,,,,,,,,,,0,14,14,82,1,,,,,,,,,,,,,,,,,,,,,,,,,,
,,,,,,,,,,,,l,0.79113,Correct!,,,,,,t4.png,t1.png,3,0.0000131,18,Female,2020-11-03_12h17.07.875,torte-q,2020.1.3,Win32,60,14127,,,,,,,,,,,,,,0,15,15,93,1,,,,,,,,,,,,,,,,,,,,,,,,,,
,,,,,,,,,,,,a,0.69219,Correct!,,,,,,t2.png,t2.png,0,0.98115,18,Female,2020-11-03_12h17.07.875,torte-q,2020.1.3,Win32,60,14127,,,,,,,,,,,,,,0,16,16,57,1,,,,,,,,,,,,,,,,,,,,,,,,,,
,,,,,,,,,,,,a,0.66896,Incorrect,,,,,,t3.png,t4.png,1,0.90855,18,Female,2020-11-03_12h17.07.875,torte-q,2020.1.3,Win32,60,14127,,,,,,,,,,,,,,0,17,17,84,1,,,,,,,,,,,,,,,,,,,,,,,,,,
,,,,,,,,,,,,l,0.66866,Incorrect,,,,,,t4.png,t3.png,1,0.90855,18,Female,2020-11-03_12h17.07.875,torte-q,2020.1.3,Win32,60,14127,,,,,,,,,,,,,,0,18,18,75,1,,,,,,,,,,,,,,,,,,,,,,,,,,
,,,,,,,,,,,,l,0.47532,Correct!,,,,,,t5.png,t3.png,2,0.056466,18,Female,2020-11-03_12h17.07.875,torte-q,2020.1.3,Win32,60,14127,,,,,,,,,,,,,,0,19,19,38,1,,,,,,,,,,,,,,,,,,,,,,,,,,
,,,,,,,,,,,,a,0.63847,Incorrect,,,,,,t2.png,t5.png,3,0.0000131,18,Female,2020-11-03_12h17.07.875,torte-q,2020.1.3,Win32,60,14127,,,,,,,,,,,,,,0,20,20,66,1,,,,,,,,,,,,,,,,,,,,,,,,,,
,,,,,,,,,,,,l,0.51902,Correct!,,,,,,t5.png,t3.png,2,0.0565,18,Female,2020-11-03_12h17.07.875,torte-q,2020.1.3,Win32,60,14127,,,,,,,,,,,,,,0,21,21,39,1,,,,,,,,,,,,,,,,,,,,,,,,,,
,,,,,,,,,,,,a,0.53601,Incorrect,,,,,,t1.png,t5.png,4,9.55E-11,18,Female,2020-11-03_12h17.07.875,torte-q,2020.1.3,Win32,60,14127,,,,,,,,,,,,,,0,22,22,16,1,,,,,,,,,,,,,,,,,,,,,,,,,,
,,,,,,,,,,,,a,0.45208,Incorrect,,,,,,t3.png,t5.png,2,0.0565,18,Female,2020-11-03_12h17.07.875,torte-q,2020.1.3,Win32,60,14127,,,,,,,,,,,,,,0,23,23,83,1,,,,,,,,,,,,,,,,,,,,,,,,,,
,,,,,,,,,,,,a,0.70765,Correct!,,,,,,t2.png,t3.png,1,0.90855,18,Female,2020-11-03_12h17.07.875,torte-q,2020.1.3,Win32,60,14127,,,,,,,,,,,,,,0,24,24,111,1,,,,,,,,,,,,,,,,,,,,,,,,,,
,,,,,,,,,,,,a,0.777265,Incorrect,,,,,,t1.png,t3.png,2,0.056466,18,Female,2020-11-03_12h17.07.875,torte-q,2020.1.3,Win32,60,14127,,,,,,,,,,,,,,0,25,25,63,1,,,,,,,,,,,,,,,,,,,,,,,,,,
,,,,,,,,,,,,l,0.80169,Incorrect,,,,,,t4.png,t3.png,1,0.90855,18,Female,2020-11-03_12h17.07.875,torte-q,2020.1.3,Win32,60,14127,,,,,,,,,,,,,,0,26,26,35,1,,,,,,,,,,,,,,,,,,,,,,,,,,
,,,,,,,,,,,,a,0.622005,Incorrect,,,,,,t1.png,t4.png,3,0.0000131,18,Female,2020-11-03_12h17.07.875,torte-q,2020.1.3,Win32,60,14127,,,,,,,,,,,,,,0,27,27,50,1,,,,,,,,,,,,,,,,,,,,,,,,,,
,,,,,,,,,,,,l,0.834805,Incorrect,,,,,,t2.png,t1.png,1,0.90025,18,Female,2020-11-03_12h17.07.875,torte-q,2020.1.3,Win32,60,14127,,,,,,,,,,,,,,0,28,28,4,1,,,,,,,,,,,,,,,,,,,,,,,,,,
,,,,,,,,,,,,l,0.80212,Correct!,,,,,,t3.png,t1.png,2,0.056466,18,Female,2020-11-03_12h17.07.875,torte-q,2020.1.3,Win32,60,14127,,,,,,,,,,,,,,0,29,29,0,1,,,,,,,,,,,,,,,,,,,,,,,,,,
,,,,,,,,,,,,a,0.93554,Incorrect,,,,,,t1.png,t3.png,2,0.056466,18,Female,2020-11-03_12h17.07.875,torte-q,2020.1.3,Win32,60,14127,,,,,,,,,,,,,,0,30,30,60,1,,,,,,,,,,,,,,,,,,,,,,,,,,
,,,,,,,,,,,,a,0.80083,Incorrect,,,,,,t3.png,t5.png,2,0.056466,18,Female,2020-11-03_12h17.07.875,torte-q,2020.1.3,Win32,60,14127,,,,,,,,,,,,,,0,31,31,44,1,,,,,,,,,,,,,,,,,,,,,,,,,,
,,,,,,,,,,,,l,0.95214,Incorrect,,,,,,t1.png,t2.png,1,0.90025,18,Female,2020-11-03_12h17.07.875,torte-q,2020.1.3,Win32,60,14127,,,,,,,,,,,,,,0,32,32,72,1,,,,,,,,,,,,,,,,,,,,,,,,,,
,,,,,,,,,,,,l,0.918185,Correct!,,,,,,t4.png,t1.png,3,0.0000131,18,Female,2020-11-03_12h17.07.875,torte-q,2020.1.3,Win32,60,14127,,,,,,,,,,,,,,0,33,33,61,1,,,,,,,,,,,,,,,,,,,,,,,,,,
,,,,,,,,,,,,a,0.639675,Correct!,,,,,,t4.png,t5.png,1,0.90025,18,Female,2020-11-03_12h17.07.875,torte-q,2020.1.3,Win32,60,14127,,,,,,,,,,,,,,0,34,34,103,1,,,,,,,,,,,,,,,,,,,,,,,,,,
,,,,,,,,,,,,a,1.011175,Correct!,,,,,,t3.png,t4.png,1,0.909,18,Female,2020-11-03_12h17.07.875,torte-q,2020.1.3,Win32,60,14127,,,,,,,,,,,,,,0,35,35,106,1,,,,,,,,,,,,,,,,,,,,,,,,,,
,,,,,,,,,,,,l,0.768795,Correct!,,,,,,t5.png,t3.png,2,0.056466,18,Female,2020-11-03_12h17.07.875,torte-q,2020.1.3,Win32,60,14127,,,,,,,,,,,,,,0,36,36,114,1,,,,,,,,,,,,,,,,,,,,,,,,,,
,,,,,,,,,,,,l,0.71895,Incorrect,,,,,,t5.png,t5.png,0,0.97829,18,Female,2020-11-03_12h17.07.875,torte-q,2020.1.3,Win32,60,14127,,,,,,,,,,,,,,0,37,37,25,1,,,,,,,,,,,,,,,,,,,,,,,,,,
,,,,,,,,,,,,a,0.852195,Correct!,,,,,,t2.png,t1.png,1,0.90025,18,Female,2020-11-03_12h17.07.875,torte-q,2020.1.3,Win32,60,14127,,,,,,,,,,,,,,0,38,38,5,1,,,,,,,,,,,,,,,,,,,,,,,,,,
,,,,,,,,,,,,l,0.81874,Correct!,,,,,,t3.png,t1.png,2,0.056466,18,Female,2020-11-03_12h17.07.875,torte-q,2020.1.3,Win32,60,14127,,,,,,,,,,,,,,0,39,39,64,1,,,,,,,,,,,,,,,,,,,,,,,,,,
,,,,,,,,,,,,a,0.743315,Incorrect,,,,,,t2.png,t4.png,2,0.059078,18,Female,2020-11-03_12h17.07.875,torte-q,2020.1.3,Win32,60,14127,,,,,,,,,,,,,,0,40,40,11,1,,,,,,,,,,,,,,,,,,,,,,,,,,
,,,,,,,,,,,,a,0.635535,Incorrect,,,,,,t1.png,t4.png,3,0.0000131,18,Female,2020-11-03_12h17.07.875,torte-q,2020.1.3,Win32,60,14127,,,,,,,,,,,,,,0,41,41,92,1,,,,,,,,,,,,,,,,,,,,,,,,,,
,,,,,,,,,,,,l,1.1082,Incorrect,,,,,,t2.png,t3.png,1,0.90855,18,Female,2020-11-03_12h17.07.875,torte-q,2020.1.3,Win32,60,14127,,,,,,,,,,,,,,0,42,42,65,1,,,,,,,,,,,,,,,,,,,,,,,,,,
,,,,,,,,,,,,l,0.90876,Correct!,,,,,,t5.png,t3.png,2,0.056466,18,Female,2020-11-03_12h17.07.875,torte-q,2020.1.3,Win32,60,14127,,,,,,,,,,,,,,0,43,43,108,1,,,,,,,,,,,,,,,,,,,,,,,,,,
,,,,,,,,,,,,l,0.802255,Incorrect,,,,,,t4.png,t4.png,0,0.98115,18,Female,2020-11-03_12h17.07.875,torte-q,2020.1.3,Win32,60,14127,,,,,,,,,,,,,,0,44,44,52,1,,,,,,,,,,,,,,,,,,,,,,,,,,
,,,,,,,,,,,,a,0.66162,Incorrect,,,,,,t1.png,t5.png,4,9.55E-11,18,Female,2020-11-03_12h17.07.875,torte-q,2020.1.3,Win32,60,14127,,,,,,,,,,,,,,0,45,45,85,1,,,,,,,,,,,,,,,,,,,,,,,,,,
,,,,,,,,,,,,l,0.713665,Incorrect,,,,,,t5.png,t4.png,1,0.90025,18,Female,2020-11-03_12h17.07.875,torte-q,2020.1.3,Win32,60,14127,,,,,,,,,,,,,,0,46,46,27,1,,,,,,,,,,,,,,,,,,,,,,,,,,
,,,,,,,,,,,,a,0.72706,Correct!,,,,,,t1.png,t2.png,1,0.90025,18,Female,2020-11-03_12h17.07.875,torte-q,2020.1.3,Win32,60,14127,,,,,,,,,,,,,,0,47,47,112,1,,,,,,,,,,,,,,,,,,,,,,,,,,
,,,,,,,,,,,,l,0.685525,Correct!,,,,,,t4.png,t2.png,2,0.059078,18,Female,2020-11-03_12h17.07.875,torte-q,2020.1.3,Win32,60,14127,,,,,,,,,,,,,,0,48,48,109,1,,,,,,,,,,,,,,,,,,,,,,,,,,
,,,,,,,,,,,,a,0.77465,Correct!,,,,,,t1.png,t1.png,0,0.97829,18,Female,2020-11-03_12h17.07.875,torte-q,2020.1.3,Win32,60,14127,,,,,,,,,,,,,,0,49,49,67,1,,,,,,,,,,,,,,,,,,,,,,,,,,
,,,,,,,,,,,,l,1.2859,Correct!,,,,,,t5.png,t1.png,4,9.55E-11,18,Female,2020-11-03_12h17.07.875,torte-q,2020.1.3,Win32,60,14127,,,,,,,,,,,,,,0,50,50,43,1,,,,,,,,,,,,,,,,,,,,,,,,,,
,,,,,,,,,,,,l,0.653885,Correct!,,,,,,t5.png,t2.png,3,0.0000131,18,Female,2020-11-03_12h17.07.875,torte-q,2020.1.3,Win32,60,14127,,,,,,,,,,,,,,0,51,51,51,1,,,,,,,,,,,,,,,,,,,,,,,,,,
,,,,,,,,,,,,l,0.757995,Correct!,,,,,,t4.png,t2.png,2,0.059078,18,Female,2020-11-03_12h17.07.875,torte-q,2020.1.3,Win32,60,14127,,,,,,,,,,,,,,0,52,52,110,1,,,,,,,,,,,,,,,,,,,,,,,,,,
,,,,,,,,,,,,a,0.82976,Incorrect,,,,,,t3.png,t5.png,2,0.056466,18,Female,2020-11-03_12h17.07.875,torte-q,2020.1.3,Win32,60,14127,,,,,,,,,,,,,,0,53,53,6,1,,,,,,,,,,,,,,,,,,,,,,,,,,
,,,,,,,,,,,,l,0.968255,Correct!,,,,,,t4.png,t1.png,3,0.0000131,18,Female,2020-11-03_12h17.07.875,torte-q,2020.1.3,Win32,60,14127,,,,,,,,,,,,,,0,54,54,42,1,,,,,,,,,,,,,,,,,,,,,,,,,,
,,,,,,,,,,,,a,0.67936,Incorrect,,,,,,t2.png,t5.png,3,0.0000131,18,Female,2020-11-03_12h17.07.875,torte-q,2020.1.3,Win32,60,14127,,,,,,,,,,,,,,0,55,55,8,1,,,,,,,,,,,,,,,,,,,,,,,,,,
,,,,,,,,,,,,l,0.901925,Incorrect,,,,,,t3.png,t2.png,1,0.90855,18,Female,2020-11-03_12h17.07.875,torte-q,2020.1.3,Win32,60,14127,,,,,,,,,,,,,,0,56,56,97,1,,,,,,,,,,,,,,,,,,,,,,,,,,
,,,,,,,,,,,,a,0.738265,Incorrect,,,,,,t1.png,t3.png,2,0.056466,18,Female,2020-11-03_12h17.07.875,torte-q,2020.1.3,Win32,60,14127,,,,,,,,,,,,,,0,57,57,87,1,,,,,,,,,,,,,,,,,,,,,,,,,,
,,,,,,,,,,,,l,0.60237,Correct!,,,,,,t5.png,t1.png,4,9.55E-11,18,Female,2020-11-03_12h17.07.875,torte-q,2020.1.3,Win32,60,14127,,,,,,,,,,,,,,0,58,58,71,1,,,,,,,,,,,,,,,,,,,,,,,,,,
,,,,,,,,,,,,l,0.57386,Correct!,,,,,,t5.png,t2.png,3,0.0000131,18,Female,2020-11-03_12h17.07.875,torte-q,2020.1.3,Win32,60,14127,,,,,,,,,,,,,,0,59,59,98,1,,,,,,,,,,,,,,,,,,,,,,,,,,
,,,,,,,,,,,,a,0.574245,Correct!,,,,,,t2.png,t3.png,1,0.90855,18,Female,2020-11-03_12h17.07.875,torte-q,2020.1.3,Win32,60,14127,,,,,,,,,,,,,,0,60,60,68,1,,,,,,,,,,,,,,,,,,,,,,,,,,
,,,,,,,,,,,,a,0.70294,Incorrect,,,,,,t1.png,t5.png,4,9.55E-11,18,Female,2020-11-03_12h17.07.875,torte-q,2020.1.3,Win32,60,14127,,,,,,,,,,,,,,0,61,61,41,1,,,,,,,,,,,,,,,,,,,,,,,,,,
,,,,,,,,,,,,a,0.708355,Incorrect,,,,,,t1.png,t5.png,4,9.55E-11,18,Female,2020-11-03_12h17.07.875,torte-q,2020.1.3,Win32,60,14127,,,,,,,,,,,,,,0,62,62,55,1,,,,,,,,,,,,,,,,,,,,,,,,,,
,,,,,,,,,,,,l,0.888835,Incorrect,,,,,,t5.png,t5.png,0,0.97829,18,Female,2020-11-03_12h17.07.875,torte-q,2020.1.3,Win32,60,14127,,,,,,,,,,,,,,0,63,63,94,1,,,,,,,,,,,,,,,,,,,,,,,,,,
,,,,,,,,,,,,a,0.79388,Correct!,,,,,,t4.png,t5.png,1,0.90025,18,Female,2020-11-03_12h17.07.875,torte-q,2020.1.3,Win32,60,14127,,,,,,,,,,,,,,0,64,64,47,1,,,,,,,,,,,,,,,,,,,,,,,,,,
,,,,,,,,,,,,l,0.578505,Correct!,,,,,,t5.png,t2.png,3,0.0000131,18,Female,2020-11-03_12h17.07.875,torte-q,2020.1.3,Win32,60,14127,,,,,,,,,,,,,,0,65,65,116,1,,,,,,,,,,,,,,,,,,,,,,,,,,
,,,,,,,,,,,,a,0.468625,Correct!,,,,,,t3.png,t4.png,1,0.909,18,Female,2020-11-03_12h17.07.875,torte-q,2020.1.3,Win32,60,14127,,,,,,,,,,,,,,0,66,66,89,1,,,,,,,,,,,,,,,,,,,,,,,,,,
,,,,,,,,,,,,l,0.669055,Incorrect,,,,,,t5.png,t4.png,1,0.90025,18,Female,2020-11-03_12h17.07.875,torte-q,2020.1.3,Win32,60,14127,,,,,,,,,,,,,,0,67,67,26,1,,,,,,,,,,,,,,,,,,,,,,,,,,
,,,,,,,,,,,,a,0.83554,Incorrect,,,,,,t3.png,t2.png,1,0.90855,18,Female,2020-11-03_12h17.07.875,torte-q,2020.1.3,Win32,60,14127,,,,,,,,,,,,,,0,68,68,53,1,,,,,,,,,,,,,,,,,,,,,,,,,,
,,,,,,,,,,,,l,0.7192,Correct!,,,,,,t5.png,t2.png,3,0.0000131,18,Female,2020-11-03_12h17.07.875,torte-q,2020.1.3,Win32,60,14127,,,,,,,,,,,,,,0,69,69,119,1,,,,,,,,,,,,,,,,,,,,,,,,,,
,,,,,,,,,,,,a,0.708425,Correct!,,,,,,t1.png,t1.png,0,0.97829,18,Female,2020-11-03_12h17.07.875,torte-q,2020.1.3,Win32,60,14127,,,,,,,,,,,,,,0,70,70,9,1,,,,,,,,,,,,,,,,,,,,,,,,,,
,,,,,,,,,,,,a,0.610605,Correct!,,,,,,t2.png,t2.png,0,0.98115,18,Female,2020-11-03_12h17.07.875,torte-q,2020.1.3,Win32,60,14127,,,,,,,,,,,,,,0,71,71,2,1,,,,,,,,,,,,,,,,,,,,,,,,,,
,,,,,,,,,,,,a,0.78812,Correct!,,,,,,t3.png,t4.png,1,0.90855,18,Female,2020-11-03_12h17.07.875,torte-q,2020.1.3,Win32,60,14127,,,,,,,,,,,,,,0,72,72,96,1,,,,,,,,,,,,,,,,,,,,,,,,,,
,,,,,,,,,,,,a,0.835115,Incorrect,,,,,,t3.png,t1.png,2,0.056466,18,Female,2020-11-03_12h17.07.875,torte-q,2020.1.3,Win32,60,14127,,,,,,,,,,,,,,0,73,73,32,1,,,,,,,,,,,,,,,,,,,,,,,,,,
,,,,,,,,,,,,l,0.75311,Correct!,,,,,,t5.png,t1.png,4,9.55E-11,18,Female,2020-11-03_12h17.07.875,torte-q,2020.1.3,Win32,60,14127,,,,,,,,,,,,,,0,74,74,100,1,,,,,,,,,,,,,,,,,,,,,,,,,,
,,,,,,,,,,,,a,0.624285,Incorrect,,,,,,t3.png,t5.png,2,0.0565,18,Female,2020-11-03_12h17.07.875,torte-q,2020.1.3,Win32,60,14127,,,,,,,,,,,,,,0,75,75,30,1,,,,,,,,,,,,,,,,,,,,,,,,,,
,,,,,,,,,,,,l,0.640625,Correct!,,,,,,t4.png,t2.png,2,0.0591,18,Female,2020-11-03_12h17.07.875,torte-q,2020.1.3,Win32,60,14127,,,,,,,,,,,,,,0,76,76,36,1,,,,,,,,,,,,,,,,,,,,,,,,,,
,,,,,,,,,,,,a,0.646165,Correct!,,,,,,t2.png,t2.png,0,0.98115,18,Female,2020-11-03_12h17.07.875,torte-q,2020.1.3,Win32,60,14127,,,,,,,,,,,,,,0,77,77,7,1,,,,,,,,,,,,,,,,,,,,,,,,,,
,,,,,,,,,,,,a,0.61908,Incorrect,,,,,,t3.png,t5.png,2,0.056466,18,Female,2020-11-03_12h17.07.875,torte-q,2020.1.3,Win32,60,14127,,,,,,,,,,,,,,0,78,78,14,1,,,,,,,,,,,,,,,,,,,,,,,,,,
,,,,,,,,,,,,a,0.73524,Correct!,,,,,,t1.png,t2.png,1,0.9,18,Female,2020-11-03_12h17.07.875,torte-q,2020.1.3,Win32,60,14127,,,,,,,,,,,,,,0,79,79,1,1,,,,,,,,,,,,,,,,,,,,,,,,,,
,,,,,,,,,,,,l,0.77691,Correct!,,,,,,t3.png,t1.png,2,0.0565,18,Female,2020-11-03_12h17.07.875,torte-q,2020.1.3,Win32,60,14127,,,,,,,,,,,,,,0,80,80,31,1,,,,,,,,,,,,,,,,,,,,,,,,,,
,,,,,,,,,,,,l,0.64424,Correct!,,,,,,t5.png,t4.png,1,0.9,18,Female,2020-11-03_12h17.07.875,torte-q,2020.1.3,Win32,60,14127,,,,,,,,,,,,,,0,81,81,76,1,,,,,,,,,,,,,,,,,,,,,,,,,,
,,,,,,,,,,,,a,0.72175,Correct!,,,,,,t4.png,t5.png,1,0.90025,18,Female,2020-11-03_12h17.07.875,torte-q,2020.1.3,Win32,60,14127,,,,,,,,,,,,,,0,82,82,58,1,,,,,,,,,,,,,,,,,,,,,,,,,,
,,,,,,,,,,,,a,0.71353,Incorrect,,,,,,t2.png,t4.png,2,0.059078,18,Female,2020-11-03_12h17.07.875,torte-q,2020.1.3,Win32,60,14127,,,,,,,,,,,,,,0,83,83,24,1,,,,,,,,,,,,,,,,,,,,,,,,,,
,,,,,,,,,,,,a,0.54694,Incorrect,,,,,,t2.png,t5.png,3,0.0000131,18,Female,2020-11-03_12h17.07.875,torte-q,2020.1.3,Win32,60,14127,,,,,,,,,,,,,,0,84,84,40,1,,,,,,,,,,,,,,,,,,,,,,,,,,
,,,,,,,,,,,,l,0.760095,Correct!,,,,,,t4.png,t1.png,3,0.0000131,18,Female,2020-11-03_12h17.07.875,torte-q,2020.1.3,Win32,60,14127,,,,,,,,,,,,,,0,85,85,48,1,,,,,,,,,,,,,,,,,,,,,,,,,,
,,,,,,,,,,,,l,0.68716,Incorrect,,,,,,t5.png,t4.png,1,0.90025,18,Female,2020-11-03_12h17.07.875,torte-q,2020.1.3,Win32,60,14127,,,,,,,,,,,,,,0,86,86,34,1,,,,,,,,,,,,,,,,,,,,,,,,,,
,,,,,,,,,,,,a,0.546285,Incorrect,,,,,,t2.png,t5.png,3,0.0000131,18,Female,2020-11-03_12h17.07.875,torte-q,2020.1.3,Win32,60,14127,,,,,,,,,,,,,,0,87,87,104,1,,,,,,,,,,,,,,,,,,,,,,,,,,
,,,,,,,,,,,,a,0.506705,Correct!,,,,,,t2.png,t1.png,1,0.9,18,Female,2020-11-03_12h17.07.875,torte-q,2020.1.3,Win32,60,14127,,,,,,,,,,,,,,0,88,88,118,1,,,,,,,,,,,,,,,,,,,,,,,,,,
,,,,,,,,,,,,a,0.53577,Incorrect,,,,,,t3.png,t2.png,1,0.909,18,Female,2020-11-03_12h17.07.875,torte-q,2020.1.3,Win32,60,14127,,,,,,,,,,,,,,0,89,89,23,1,,,,,,,,,,,,,,,,,,,,,,,,,,
,,,,,,,,,,,,l,0.686555,Incorrect,,,,,,t5.png,t5.png,0,0.978,18,Female,2020-11-03_12h17.07.875,torte-q,2020.1.3,Win32,60,14127,,,,,,,,,,,,,,0,90,90,117,1,,,,,,,,,,,,,,,,,,,,,,,,,,
,,,,,,,,,,,,l,1.10115,Incorrect,,,,,,t4.png,t4.png,0,0.98115,18,Female,2020-11-03_12h17.07.875,torte-q,2020.1.3,Win32,60,14127,,,,,,,,,,,,,,0,91,91,80,1,,,,,,,,,,,,,,,,,,,,,,,,,,
,,,,,,,,,,,,a,0.70979,Correct!,,,,,,t1.png,t1.png,0,0.978,18,Female,2020-11-03_12h17.07.875,torte-q,2020.1.3,Win32,60,14127,,,,,,,,,,,,,,0,92,92,54,1,,,,,,,,,,,,,,,,,,,,,,,,,,
,,,,,,,,,,,,a,0.86936,Correct!,,,,,,t2.png,t2.png,0,0.981,18,Female,2020-11-03_12h17.07.875,torte-q,2020.1.3,Win32,60,14127,,,,,,,,,,,,,,0,93,93,101,1,,,,,,,,,,,,,,,,,,,,,,,,,,
,,,,,,,,,,,,l,0.918815,Correct!,,,,,,t4.png,t2.png,2,0.059078,18,Female,2020-11-03_12h17.07.875,torte-q,2020.1.3,Win32,60,14127,,,,,,,,,,,,,,0,94,94,86,1,,,,,,,,,,,,,,,,,,,,,,,,,,
,,,,,,,,,,,,a,0.62525,Correct!,,,,,,t1.png,t2.png,1,0.90025,18,Female,2020-11-03_12h17.07.875,torte-q,2020.1.3,Win32,60,14127,,,,,,,,,,,,,,0,95,95,105,1,,,,,,,,,,,,,,,,,,,,,,,,,,
,,,,,,,,,,,,l,0.63522,Correct!,,,,,,t5.png,t1.png,4,9.55E-11,18,Female,2020-11-03_12h17.07.875,torte-q,2020.1.3,Win32,60,14127,,,,,,,,,,,,,,0,96,96,102,1,,,,,,,,,,,,,,,,,,,,,,,,,,
,,,,,,,,,,,,a,0.709945,Incorrect,,,,,,t2.png,t4.png,2,0.059078,18,Female,2020-11-03_12h17.07.875,torte-q,2020.1.3,Win32,60,14127,,,,,,,,,,,,,,0,97,97,37,1,,,,,,,,,,,,,,,,,,,,,,,,,,
,,,,,,,,,,,,a,0.6353,Incorrect,,,,,,t1.png,t4.png,3,0.0000131,18,Female,2020-11-03_12h17.07.875,torte-q,2020.1.3,Win32,60,14127,,,,,,,,,,,,,,0,98,98,107,1,,,,,,,,,,,,,,,,,,,,,,,,,,
,,,,,,,,,,,,a,0.53553,Incorrect,,,,,,t1.png,t3.png,2,0.056466,18,Female,2020-11-03_12h17.07.875,torte-q,2020.1.3,Win32,60,14127,,,,,,,,,,,,,,0,99,99,69,1,,,,,,,,,,,,,,,,,,,,,,,,,,
,,,,,,,,,,,,a,0.511445,Incorrect,,,,,,t2.png,t4.png,2,0.059078,18,Female,2020-11-03_12h17.07.875,torte-q,2020.1.3,Win32,60,14127,,,,,,,,,,,,,,0,100,100,77,1,,,,,,,,,,,,,,,,,,,,,,,,,,
,,,,,,,,,,,,a,0.677005,Correct!,,,,,,t1.png,t1.png,0,0.97829,18,Female,2020-11-03_12h17.07.875,torte-q,2020.1.3,Win32,60,14127,,,,,,,,,,,,,,0,101,101,78,1,,,,,,,,,,,,,,,,,,,,,,,,,,
,,,,,,,,,,,,a,0.60179,Incorrect,,,,,,t1.png,t5.png,4,9.55E-11,18,Female,2020-11-03_12h17.07.875,torte-q,2020.1.3,Win32,60,14127,,,,,,,,,,,,,,0,102,102,12,1,,,,,,,,,,,,,,,,,,,,,,,,,,
,,,,,,,,,,,,a,0.64206,Incorrect,,,,,,t1.png,t4.png,3,0.0000131,18,Female,2020-11-03_12h17.07.875,torte-q,2020.1.3,Win32,60,14127,,,,,,,,,,,,,,0,103,103,17,1,,,,,,,,,,,,,,,,,,,,,,,,,,
,,,,,,,,,,,,l,0.86917,Correct!,,,,,,t3.png,t1.png,2,0.056466,18,Female,2020-11-03_12h17.07.875,torte-q,2020.1.3,Win32,60,14127,,,,,,,,,,,,,,0,104,104,29,1,,,,,,,,,,,,,,,,,,,,,,,,,,
,,,,,,,,,,,,a,0.5921,Correct!,,,,,,t1.png,t2.png,1,0.90025,18,Female,2020-11-03_12h17.07.875,torte-q,2020.1.3,Win32,60,14127,,,,,,,,,,,,,,0,105,105,33,1,,,,,,,,,,,,,,,,,,,,,,,,,,
,,,,,,,,,,,,l,0.758465,Incorrect,,,,,,t2.png,t2.png,0,0.98115,18,Female,2020-11-03_12h17.07.875,torte-q,2020.1.3,Win32,60,14127,,,,,,,,,,,,,,0,106,106,59,1,,,,,,,,,,,,,,,,,,,,,,,,,,
,,,,,,,,,,,,l,0.718655,Incorrect,,,,,,t3.png,t2.png,1,0.90855,18,Female,2020-11-03_12h17.07.875,torte-q,2020.1.3,Win32,60,14127,,,,,,,,,,,,,,0,107,107,18,1,,,,,,,,,,,,,,,,,,,,,,,,,,
,,,,,,,,,,,,a,0.657975,Correct!,,,,,,t2.png,t3.png,1,0.909,18,Female,2020-11-03_12h17.07.875,torte-q,2020.1.3,Win32,60,14127,,,,,,,,,,,,,,0,108,108,74,1,,,,,,,,,,,,,,,,,,,,,,,,,,
,,,,,,,,,,,,l,0.639495,Incorrect,,,,,,t4.png,t2.png,2,0.059078,18,Female,2020-11-03_12h17.07.875,torte-q,2020.1.3,Win32,60,14127,,,,,,,,,,,,,,0,109,109,88,1,,,,,,,,,,,,,,,,,,,,,,,,,,
,,,,,,,,,,,,a,0.946155,Correct!,,,,,,t2.png,t1.png,1,0.90025,18,Female,2020-11-03_12h17.07.875,torte-q,2020.1.3,Win32,60,14127,,,,,,,,,,,,,,0,110,110,62,1,,,,,,,,,,,,,,,,,,,,,,,,,,
,,,,,,,,,,,,a,0.60665,Correct!,,,,,,t2.png,t4.png,2,0.0591,18,Female,2020-11-03_12h17.07.875,torte-q,2020.1.3,Win32,60,14127,,,,,,,,,,,,,,0,111,111,15,1,,,,,,,,,,,,,,,,,,,,,,,,,,
,,,,,,,,,,,,a,1.068605,Correct!,,,,,,t4.png,t4.png,0,0.98115,18,Female,2020-11-03_12h17.07.875,torte-q,2020.1.3,Win32,60,14127,,,,,,,,,,,,,,0,112,112,21,1,,,,,,,,,,,,,,,,,,,,,,,,,,
,,,,,,,,,,,,a,0.77248,Correct!,,,,,,t1.png,t1.png,0,0.978,18,Female,2020-11-03_12h17.07.875,torte-q,2020.1.3,Win32,60,14127,,,,,,,,,,,,,,0,113,113,28,1,,,,,,,,,,,,,,,,,,,,,,,,,,
,,,,,,,,,,,,l,0.73476,Incorrect,,,,,,t3.png,t2.png,1,0.909,18,Female,2020-11-03_12h17.07.875,torte-q,2020.1.3,Win32,60,14127,,,,,,,,,,,,,,0,114,114,3,1,,,,,,,,,,,,,,,,,,,,,,,,,,
,,,,,,,,,,,,a,0.657565,Correct!,,,,,,t4.png,t3.png,1,0.909,18,Female,2020-11-03_12h17.07.875,torte-q,2020.1.3,Win32,60,14127,,,,,,,,,,,,,,0,115,115,20,1,,,,,,,,,,,,,,,,,,,,,,,,,,
,,,,,,,,,,,,a,0.70307,Incorrect,,,,,,t4.png,t1.png,3,0.0000131,18,Female,2020-11-03_12h17.07.875,torte-q,2020.1.3,Win32,60,14127,,,,,,,,,,,,,,0,116,116,13,1,,,,,,,,,,,,,,,,,,,,,,,,,,
,,,,,,,,,,,,a,0.902305,Correct!,,,,,,t4.png,t5.png,1,0.90025,18,Female,2020-11-03_12h17.07.875,torte-q,2020.1.3,Win32,60,14127,,,,,,,,,,,,,,0,117,117,113,1,,,,,,,,,,,,,,,,,,,,,,,,,,
,,,,,,,,,,,,l,0.8064,Incorrect,,,,,,t4.png,t3.png,1,0.90855,18,Female,2020-11-03_12h17.07.875,torte-q,2020.1.3,Win32,60,14127,,,,,,,,,,,,,,0,118,118,45,1,,,,,,,,,,,,,,,,,,,,,,,,,,
,,,,,,,,,,,,a,0.551745,Correct!,,,,,,t2.png,t3.png,1,0.90855,18,Female,2020-11-03_12h17.07.875,torte-q,2020.1.3,Win32,60,14127,,,,,,,,,,,,,,0,119,119,10,1,,,,,,,,,,,,,,,,,,,,,,,,,,
,,,,,,,,,,,,,,,,,,,,,,,,18,Female,2020-11-03_12h17.07.875,torte-q,2020.1.3,Win32,60,14127,space,1.84477,,,,,,,,,,,,,,,,,2.02,7.30641,28.00001186,-112.8000081,1,0,0,s6,57.6000123,77.59999472,1,0,0,t1,168.0000139,-118.4000082,1,0,0,proceed,space,26.621495,space,15.1001,space,15.54972
