key_resp_8.keys,key_resp_8.rt,key_resp_9.keys,key_resp_9.rt,key_resp_10.keys,key_resp_10.rt,key_resp_11.keys,key_resp_11.rt,key_resp_2.keys,key_resp_2.rt,key_resp_3.keys,key_resp_3.rt,key_resp.keys,Feedback,train.thisRepN,train.thisTrialN,train.thisN,train.thisIndex,train.ran,torta_sx,torta_dx,difference,probability,age,gender,date,expName,psychopyVersion,OS,frameRate,key_resp.rt,key_resp_15.keys,key_resp_15.rt,key_resp_6.keys,key_resp_6.rt,test1.thisRepN,test1.thisTrialN,test1.thisN,test1.thisIndex,test1.ran,key_resp_16.keys,key_resp_16.rt,key_resp_7.keys,key_resp_7.rt,test2.thisRepN,test2.thisTrialN,test2.thisN,test2.thisIndex,test2.ran,rating.response,rating.rt,mouse.x,mouse.y,mouse.leftButton,mouse.midButton,mouse.rightButton,mouse.clicked_name,mouse_2.x,mouse_2.y,mouse_2.leftButton,mouse_2.midButton,mouse_2.rightButton,mouse_2.clicked_name,mouse_3.x,mouse_3.y,mouse_3.leftButton,mouse_3.midButton,mouse_3.rightButton,mouse_3.clicked_name,key_resp_12.keys,key_resp_12.rt,key_resp_13.keys,key_resp_13.rt,key_resp_14.keys,key_resp_14.rt
space,31.069915,space,274.54154,space,2.040745,space,6.9528,space,24.21616,space,39.414345,,Too slow :(,0,0,0,74,1,t5.png,t4.png,1,0.9,20 ,Male,2020-11-02_14h31.26.748,torte-q,2020.1.3,Win32,60,,,,,,,,,,,,,,,,,,,,,,,,,,,,,,,,,,,,,,,,,,,,,
,,,,,,,,,,,,l,Incorrect,0,1,1,81,1,t1.png,t1.png,0,0.97829,20 ,Male,2020-11-02_14h31.26.748,torte-q,2020.1.3,Win32,60,1.34592,,,,,,,,,,,,,,,,,,,,,,,,,,,,,,,,,,,,,,,,,,,,
,,,,,,,,,,,,a,Incorrect,0,2,2,33,1,t5.png,t1.png,4,9.55E-11,20 ,Male,2020-11-02_14h31.26.748,torte-q,2020.1.3,Win32,60,1.731075,,,,,,,,,,,,,,,,,,,,,,,,,,,,,,,,,,,,,,,,,,,,
,,,,,,,,,,,,l,Correct!,0,3,3,9,1,t4.png,t5.png,1,0.9,20 ,Male,2020-11-02_14h31.26.748,torte-q,2020.1.3,Win32,60,2.184645,,,,,,,,,,,,,,,,,,,,,,,,,,,,,,,,,,,,,,,,,,,,
,,,,,,,,,,,,,Too slow :(,0,4,4,68,1,t1.png,t4.png,3,0.0000131,20 ,Male,2020-11-02_14h31.26.748,torte-q,2020.1.3,Win32,60,,,,,,,,,,,,,,,,,,,,,,,,,,,,,,,,,,,,,,,,,,,,,
,,,,,,,,,,,,l,Incorrect,0,5,5,69,1,t4.png,t2.png,2,0.059078,20 ,Male,2020-11-02_14h31.26.748,torte-q,2020.1.3,Win32,60,1.91968,,,,,,,,,,,,,,,,,,,,,,,,,,,,,,,,,,,,,,,,,,,,
,,,,,,,,,,,,l,Correct!,0,6,6,108,1,t5.png,t1.png,4,9.55E-11,20 ,Male,2020-11-02_14h31.26.748,torte-q,2020.1.3,Win32,60,1.45251,,,,,,,,,,,,,,,,,,,,,,,,,,,,,,,,,,,,,,,,,,,,
,,,,,,,,,,,,l,Correct!,0,7,7,35,1,t1.png,t4.png,3,0.0000131,20 ,Male,2020-11-02_14h31.26.748,torte-q,2020.1.3,Win32,60,2.22944,,,,,,,,,,,,,,,,,,,,,,,,,,,,,,,,,,,,,,,,,,,,
,,,,,,,,,,,,a,Incorrect,0,8,8,92,1,t2.png,t3.png,1,0.909,20 ,Male,2020-11-02_14h31.26.748,torte-q,2020.1.3,Win32,60,1.65777,,,,,,,,,,,,,,,,,,,,,,,,,,,,,,,,,,,,,,,,,,,,
,,,,,,,,,,,,l,Correct!,0,9,9,46,1,t4.png,t2.png,2,0.059078,20 ,Male,2020-11-02_14h31.26.748,torte-q,2020.1.3,Win32,60,2.33166,,,,,,,,,,,,,,,,,,,,,,,,,,,,,,,,,,,,,,,,,,,,
,,,,,,,,,,,,,Too slow :(,0,10,10,25,1,t5.png,t5.png,0,0.97829,20 ,Male,2020-11-02_14h31.26.748,torte-q,2020.1.3,Win32,60,,,,,,,,,,,,,,,,,,,,,,,,,,,,,,,,,,,,,,,,,,,,,
,,,,,,,,,,,,l,Correct!,0,11,11,30,1,t3.png,t1.png,2,0.056466,20 ,Male,2020-11-02_14h31.26.748,torte-q,2020.1.3,Win32,60,1.804205,,,,,,,,,,,,,,,,,,,,,,,,,,,,,,,,,,,,,,,,,,,,
,,,,,,,,,,,,a,Incorrect,0,12,12,94,1,t5.png,t1.png,4,9.55E-11,20 ,Male,2020-11-02_14h31.26.748,torte-q,2020.1.3,Win32,60,0.888785,,,,,,,,,,,,,,,,,,,,,,,,,,,,,,,,,,,,,,,,,,,,
,,,,,,,,,,,,l,Incorrect,0,13,13,34,1,t5.png,t4.png,1,0.9,20 ,Male,2020-11-02_14h31.26.748,torte-q,2020.1.3,Win32,60,1.301135,,,,,,,,,,,,,,,,,,,,,,,,,,,,,,,,,,,,,,,,,,,,
,,,,,,,,,,,,a,Correct!,0,14,14,109,1,t5.png,t5.png,0,0.97829,20 ,Male,2020-11-02_14h31.26.748,torte-q,2020.1.3,Win32,60,1.422205,,,,,,,,,,,,,,,,,,,,,,,,,,,,,,,,,,,,,,,,,,,,
,,,,,,,,,,,,a,Correct!,0,15,15,23,1,t5.png,t4.png,1,0.90025,20 ,Male,2020-11-02_14h31.26.748,torte-q,2020.1.3,Win32,60,1.08078,,,,,,,,,,,,,,,,,,,,,,,,,,,,,,,,,,,,,,,,,,,,
,,,,,,,,,,,,l,Incorrect,0,16,16,77,1,t1.png,t1.png,0,0.97829,20 ,Male,2020-11-02_14h31.26.748,torte-q,2020.1.3,Win32,60,1.987965,,,,,,,,,,,,,,,,,,,,,,,,,,,,,,,,,,,,,,,,,,,,
,,,,,,,,,,,,a,Correct!,0,17,17,95,1,t1.png,t1.png,0,0.978,20 ,Male,2020-11-02_14h31.26.748,torte-q,2020.1.3,Win32,60,0.9764,,,,,,,,,,,,,,,,,,,,,,,,,,,,,,,,,,,,,,,,,,,,
,,,,,,,,,,,,a,Incorrect,0,18,18,5,1,t2.png,t4.png,2,0.059078,20 ,Male,2020-11-02_14h31.26.748,torte-q,2020.1.3,Win32,60,1.98167,,,,,,,,,,,,,,,,,,,,,,,,,,,,,,,,,,,,,,,,,,,,
,,,,,,,,,,,,a,Incorrect,0,19,19,11,1,t1.png,t4.png,3,0.0000131,20 ,Male,2020-11-02_14h31.26.748,torte-q,2020.1.3,Win32,60,1.54962,,,,,,,,,,,,,,,,,,,,,,,,,,,,,,,,,,,,,,,,,,,,
,,,,,,,,,,,,a,Correct!,0,20,20,114,1,t2.png,t3.png,1,0.90855,20 ,Male,2020-11-02_14h31.26.748,torte-q,2020.1.3,Win32,60,2.13106,,,,,,,,,,,,,,,,,,,,,,,,,,,,,,,,,,,,,,,,,,,,
,,,,,,,,,,,,l,Incorrect,0,21,21,41,1,t3.png,t2.png,1,0.90855,20 ,Male,2020-11-02_14h31.26.748,torte-q,2020.1.3,Win32,60,2.23756,,,,,,,,,,,,,,,,,,,,,,,,,,,,,,,,,,,,,,,,,,,,
,,,,,,,,,,,,,Too slow :(,0,22,22,47,1,t4.png,t2.png,2,0.059078,20 ,Male,2020-11-02_14h31.26.748,torte-q,2020.1.3,Win32,60,,,,,,,,,,,,,,,,,,,,,,,,,,,,,,,,,,,,,,,,,,,,,
,,,,,,,,,,,,a,Correct!,0,23,23,44,1,t2.png,t3.png,1,0.909,20 ,Male,2020-11-02_14h31.26.748,torte-q,2020.1.3,Win32,60,0.79069,,,,,,,,,,,,,,,,,,,,,,,,,,,,,,,,,,,,,,,,,,,,
,,,,,,,,,,,,a,Correct!,0,24,24,118,1,t5.png,t5.png,0,0.978,20 ,Male,2020-11-02_14h31.26.748,torte-q,2020.1.3,Win32,60,1.32923,,,,,,,,,,,,,,,,,,,,,,,,,,,,,,,,,,,,,,,,,,,,
,,,,,,,,,,,,a,Correct!,0,25,25,15,1,t3.png,t2.png,1,0.90855,20 ,Male,2020-11-02_14h31.26.748,torte-q,2020.1.3,Win32,60,1.03353,,,,,,,,,,,,,,,,,,,,,,,,,,,,,,,,,,,,,,,,,,,,
,,,,,,,,,,,,a,Correct!,0,26,26,107,1,t1.png,t1.png,0,0.978,20 ,Male,2020-11-02_14h31.26.748,torte-q,2020.1.3,Win32,60,1.22025,,,,,,,,,,,,,,,,,,,,,,,,,,,,,,,,,,,,,,,,,,,,
,,,,,,,,,,,,a,Correct!,0,27,27,78,1,t1.png,t1.png,0,0.978,20 ,Male,2020-11-02_14h31.26.748,torte-q,2020.1.3,Win32,60,0.82106,,,,,,,,,,,,,,,,,,,,,,,,,,,,,,,,,,,,,,,,,,,,
,,,,,,,,,,,,l,Correct!,0,28,28,1,1,t2.png,t4.png,2,0.059078,20 ,Male,2020-11-02_14h31.26.748,torte-q,2020.1.3,Win32,60,2.259315,,,,,,,,,,,,,,,,,,,,,,,,,,,,,,,,,,,,,,,,,,,,
,,,,,,,,,,,,a,Correct!,0,29,29,16,1,t5.png,t4.png,1,0.9,20 ,Male,2020-11-02_14h31.26.748,torte-q,2020.1.3,Win32,60,1.649605,,,,,,,,,,,,,,,,,,,,,,,,,,,,,,,,,,,,,,,,,,,,
,,,,,,,,,,,,a,Incorrect,0,30,30,40,1,t1.png,t5.png,4,9.55E-11,20 ,Male,2020-11-02_14h31.26.748,torte-q,2020.1.3,Win32,60,0.779195,,,,,,,,,,,,,,,,,,,,,,,,,,,,,,,,,,,,,,,,,,,,
,,,,,,,,,,,,a,Correct!,0,31,31,45,1,t3.png,t2.png,1,0.90855,20 ,Male,2020-11-02_14h31.26.748,torte-q,2020.1.3,Win32,60,1.183335,,,,,,,,,,,,,,,,,,,,,,,,,,,,,,,,,,,,,,,,,,,,
,,,,,,,,,,,,l,Correct!,0,32,32,17,1,t1.png,t4.png,3,0.0000131,20 ,Male,2020-11-02_14h31.26.748,torte-q,2020.1.3,Win32,60,1.137785,,,,,,,,,,,,,,,,,,,,,,,,,,,,,,,,,,,,,,,,,,,,
,,,,,,,,,,,,l,Correct!,0,33,33,66,1,t4.png,t5.png,1,0.9,20 ,Male,2020-11-02_14h31.26.748,torte-q,2020.1.3,Win32,60,2.456555,,,,,,,,,,,,,,,,,,,,,,,,,,,,,,,,,,,,,,,,,,,,
,,,,,,,,,,,,a,Correct!,0,34,34,106,1,t2.png,t3.png,1,0.90855,20 ,Male,2020-11-02_14h31.26.748,torte-q,2020.1.3,Win32,60,1.85055,,,,,,,,,,,,,,,,,,,,,,,,,,,,,,,,,,,,,,,,,,,,
,,,,,,,,,,,,a,Incorrect,0,35,35,36,1,t3.png,t1.png,2,0.0565,20 ,Male,2020-11-02_14h31.26.748,torte-q,2020.1.3,Win32,60,1.82412,,,,,,,,,,,,,,,,,,,,,,,,,,,,,,,,,,,,,,,,,,,,
,,,,,,,,,,,,l,Incorrect,0,36,36,96,1,t1.png,t1.png,0,0.97829,20 ,Male,2020-11-02_14h31.26.748,torte-q,2020.1.3,Win32,60,1.29791,,,,,,,,,,,,,,,,,,,,,,,,,,,,,,,,,,,,,,,,,,,,
,,,,,,,,,,,,a,Incorrect,0,37,37,51,1,t3.png,t1.png,2,0.056466,20 ,Male,2020-11-02_14h31.26.748,torte-q,2020.1.3,Win32,60,1.139865,,,,,,,,,,,,,,,,,,,,,,,,,,,,,,,,,,,,,,,,,,,,
,,,,,,,,,,,,a,Incorrect,0,38,38,6,1,t1.png,t4.png,3,0.0000131,20 ,Male,2020-11-02_14h31.26.748,torte-q,2020.1.3,Win32,60,1.97322,,,,,,,,,,,,,,,,,,,,,,,,,,,,,,,,,,,,,,,,,,,,
,,,,,,,,,,,,a,Incorrect,0,39,39,24,1,t4.png,t2.png,2,0.059078,20 ,Male,2020-11-02_14h31.26.748,torte-q,2020.1.3,Win32,60,1.77753,,,,,,,,,,,,,,,,,,,,,,,,,,,,,,,,,,,,,,,,,,,,
,,,,,,,,,,,,a,Incorrect,0,40,40,57,1,t2.png,t4.png,2,0.059078,20 ,Male,2020-11-02_14h31.26.748,torte-q,2020.1.3,Win32,60,1.69393,,,,,,,,,,,,,,,,,,,,,,,,,,,,,,,,,,,,,,,,,,,,
,,,,,,,,,,,,a,Correct!,0,41,41,10,1,t2.png,t3.png,1,0.90855,20 ,Male,2020-11-02_14h31.26.748,torte-q,2020.1.3,Win32,60,1.551105,,,,,,,,,,,,,,,,,,,,,,,,,,,,,,,,,,,,,,,,,,,,
,,,,,,,,,,,,a,Incorrect,0,42,42,103,1,t3.png,t1.png,2,0.056466,20 ,Male,2020-11-02_14h31.26.748,torte-q,2020.1.3,Win32,60,1.85419,,,,,,,,,,,,,,,,,,,,,,,,,,,,,,,,,,,,,,,,,,,,
,,,,,,,,,,,,l,Correct!,0,43,43,99,1,t1.png,t5.png,4,9.55E-11,20 ,Male,2020-11-02_14h31.26.748,torte-q,2020.1.3,Win32,60,1.8752,,,,,,,,,,,,,,,,,,,,,,,,,,,,,,,,,,,,,,,,,,,,
,,,,,,,,,,,,a,Correct!,0,44,44,79,1,t3.png,t2.png,1,0.909,20 ,Male,2020-11-02_14h31.26.748,torte-q,2020.1.3,Win32,60,1.175095,,,,,,,,,,,,,,,,,,,,,,,,,,,,,,,,,,,,,,,,,,,,
,,,,,,,,,,,,a,Correct!,0,45,45,28,1,t2.png,t3.png,1,0.909,20 ,Male,2020-11-02_14h31.26.748,torte-q,2020.1.3,Win32,60,1.24108,,,,,,,,,,,,,,,,,,,,,,,,,,,,,,,,,,,,,,,,,,,,
,,,,,,,,,,,,a,Correct!,0,46,46,85,1,t3.png,t2.png,1,0.90855,20 ,Male,2020-11-02_14h31.26.748,torte-q,2020.1.3,Win32,60,2.408115,,,,,,,,,,,,,,,,,,,,,,,,,,,,,,,,,,,,,,,,,,,,
,,,,,,,,,,,,a,Correct!,0,47,47,84,1,t1.png,t1.png,0,0.97829,20 ,Male,2020-11-02_14h31.26.748,torte-q,2020.1.3,Win32,60,2.002355,,,,,,,,,,,,,,,,,,,,,,,,,,,,,,,,,,,,,,,,,,,,
,,,,,,,,,,,,a,Correct!,0,48,48,76,1,t3.png,t2.png,1,0.90855,20 ,Male,2020-11-02_14h31.26.748,torte-q,2020.1.3,Win32,60,2.161775,,,,,,,,,,,,,,,,,,,,,,,,,,,,,,,,,,,,,,,,,,,,
,,,,,,,,,,,,l,Incorrect,0,49,49,62,1,t5.png,t5.png,0,0.978,20 ,Male,2020-11-02_14h31.26.748,torte-q,2020.1.3,Win32,60,1.849155,,,,,,,,,,,,,,,,,,,,,,,,,,,,,,,,,,,,,,,,,,,,
,,,,,,,,,,,,a,Correct!,0,50,50,8,1,t3.png,t2.png,1,0.90855,20 ,Male,2020-11-02_14h31.26.748,torte-q,2020.1.3,Win32,60,1.052585,,,,,,,,,,,,,,,,,,,,,,,,,,,,,,,,,,,,,,,,,,,,
,,,,,,,,,,,,l,Correct!,0,51,51,119,1,t1.png,t5.png,4,9.55E-11,20 ,Male,2020-11-02_14h31.26.748,torte-q,2020.1.3,Win32,60,2.002635,,,,,,,,,,,,,,,,,,,,,,,,,,,,,,,,,,,,,,,,,,,,
,,,,,,,,,,,,a,Incorrect,0,52,52,80,1,t1.png,t4.png,3,0.0000131,20 ,Male,2020-11-02_14h31.26.748,torte-q,2020.1.3,Win32,60,2.084795,,,,,,,,,,,,,,,,,,,,,,,,,,,,,,,,,,,,,,,,,,,,
,,,,,,,,,,,,l,Incorrect,0,53,53,75,1,t1.png,t1.png,0,0.97829,20 ,Male,2020-11-02_14h31.26.748,torte-q,2020.1.3,Win32,60,1.067175,,,,,,,,,,,,,,,,,,,,,,,,,,,,,,,,,,,,,,,,,,,,
,,,,,,,,,,,,l,Correct!,0,54,54,4,1,t1.png,t5.png,4,9.55E-11,20 ,Male,2020-11-02_14h31.26.748,torte-q,2020.1.3,Win32,60,1.5726,,,,,,,,,,,,,,,,,,,,,,,,,,,,,,,,,,,,,,,,,,,,
,,,,,,,,,,,,a,Correct!,0,55,55,105,1,t3.png,t2.png,1,0.90855,20 ,Male,2020-11-02_14h31.26.748,torte-q,2020.1.3,Win32,60,0.89831,,,,,,,,,,,,,,,,,,,,,,,,,,,,,,,,,,,,,,,,,,,,
,,,,,,,,,,,,a,Incorrect,0,56,56,52,1,t2.png,t4.png,2,0.059078,20 ,Male,2020-11-02_14h31.26.748,torte-q,2020.1.3,Win32,60,1.297275,,,,,,,,,,,,,,,,,,,,,,,,,,,,,,,,,,,,,,,,,,,,
,,,,,,,,,,,,l,Correct!,0,57,57,3,1,t1.png,t5.png,4,9.55E-11,20 ,Male,2020-11-02_14h31.26.748,torte-q,2020.1.3,Win32,60,2.146925,,,,,,,,,,,,,,,,,,,,,,,,,,,,,,,,,,,,,,,,,,,,
,,,,,,,,,,,,,Too slow :(,0,58,58,110,1,t4.png,t5.png,1,0.90025,20 ,Male,2020-11-02_14h31.26.748,torte-q,2020.1.3,Win32,60,,,,,,,,,,,,,,,,,,,,,,,,,,,,,,,,,,,,,,,,,,,,,
,,,,,,,,,,,,a,Incorrect,0,59,59,86,1,t3.png,t1.png,2,0.056466,20 ,Male,2020-11-02_14h31.26.748,torte-q,2020.1.3,Win32,60,0.77191,,,,,,,,,,,,,,,,,,,,,,,,,,,,,,,,,,,,,,,,,,,,
,,,,,,,,,,,,a,Correct!,0,60,60,20,1,t2.png,t3.png,1,0.90855,20 ,Male,2020-11-02_14h31.26.748,torte-q,2020.1.3,Win32,60,1.903255,,,,,,,,,,,,,,,,,,,,,,,,,,,,,,,,,,,,,,,,,,,,
,,,,,,,,,,,,l,Incorrect,0,61,61,7,1,t4.png,t5.png,1,0.90025,20 ,Male,2020-11-02_14h31.26.748,torte-q,2020.1.3,Win32,60,1.930685,,,,,,,,,,,,,,,,,,,,,,,,,,,,,,,,,,,,,,,,,,,,
,,,,,,,,,,,,a,Correct!,0,62,62,100,1,t4.png,t5.png,1,0.90025,20 ,Male,2020-11-02_14h31.26.748,torte-q,2020.1.3,Win32,60,1.55509,,,,,,,,,,,,,,,,,,,,,,,,,,,,,,,,,,,,,,,,,,,,
,,,,,,,,,,,,l,Incorrect,0,63,63,13,1,t5.png,t5.png,0,0.97829,20 ,Male,2020-11-02_14h31.26.748,torte-q,2020.1.3,Win32,60,2.04086,,,,,,,,,,,,,,,,,,,,,,,,,,,,,,,,,,,,,,,,,,,,
,,,,,,,,,,,,a,Incorrect,0,64,64,98,1,t2.png,t4.png,2,0.0591,20 ,Male,2020-11-02_14h31.26.748,torte-q,2020.1.3,Win32,60,1.93818,,,,,,,,,,,,,,,,,,,,,,,,,,,,,,,,,,,,,,,,,,,,
,,,,,,,,,,,,a,Correct!,0,65,65,29,1,t5.png,t5.png,0,0.97829,20 ,Male,2020-11-02_14h31.26.748,torte-q,2020.1.3,Win32,60,1.22699,,,,,,,,,,,,,,,,,,,,,,,,,,,,,,,,,,,,,,,,,,,,
,,,,,,,,,,,,a,Incorrect,0,66,66,42,1,t5.png,t4.png,1,0.90025,20 ,Male,2020-11-02_14h31.26.748,torte-q,2020.1.3,Win32,60,1.60971,,,,,,,,,,,,,,,,,,,,,,,,,,,,,,,,,,,,,,,,,,,,
,,,,,,,,,,,,a,Incorrect,0,67,67,89,1,t1.png,t4.png,3,0.0000131,20 ,Male,2020-11-02_14h31.26.748,torte-q,2020.1.3,Win32,60,1.33613,,,,,,,,,,,,,,,,,,,,,,,,,,,,,,,,,,,,,,,,,,,,
,,,,,,,,,,,,l,Correct!,0,68,68,67,1,t1.png,t5.png,4,9.55E-11,20 ,Male,2020-11-02_14h31.26.748,torte-q,2020.1.3,Win32,60,1.173315,,,,,,,,,,,,,,,,,,,,,,,,,,,,,,,,,,,,,,,,,,,,
,,,,,,,,,,,,l,Incorrect,0,69,69,116,1,t5.png,t4.png,1,0.90025,20 ,Male,2020-11-02_14h31.26.748,torte-q,2020.1.3,Win32,60,1.834595,,,,,,,,,,,,,,,,,,,,,,,,,,,,,,,,,,,,,,,,,,,,
,,,,,,,,,,,,a,Incorrect,0,70,70,55,1,t2.png,t4.png,2,0.059078,20 ,Male,2020-11-02_14h31.26.748,torte-q,2020.1.3,Win32,60,1.93103,,,,,,,,,,,,,,,,,,,,,,,,,,,,,,,,,,,,,,,,,,,,
,,,,,,,,,,,,l,Correct!,0,71,71,31,1,t1.png,t5.png,4,9.55E-11,20 ,Male,2020-11-02_14h31.26.748,torte-q,2020.1.3,Win32,60,1.218515,,,,,,,,,,,,,,,,,,,,,,,,,,,,,,,,,,,,,,,,,,,,
,,,,,,,,,,,,a,Correct!,0,72,72,63,1,t2.png,t3.png,1,0.909,20 ,Male,2020-11-02_14h31.26.748,torte-q,2020.1.3,Win32,60,1.969805,,,,,,,,,,,,,,,,,,,,,,,,,,,,,,,,,,,,,,,,,,,,
,,,,,,,,,,,,a,Correct!,0,73,73,18,1,t4.png,t5.png,1,0.90025,20 ,Male,2020-11-02_14h31.26.748,torte-q,2020.1.3,Win32,60,2.09768,,,,,,,,,,,,,,,,,,,,,,,,,,,,,,,,,,,,,,,,,,,,
,,,,,,,,,,,,l,Correct!,0,74,74,50,1,t5.png,t1.png,4,9.55E-11,20 ,Male,2020-11-02_14h31.26.748,torte-q,2020.1.3,Win32,60,1.368485,,,,,,,,,,,,,,,,,,,,,,,,,,,,,,,,,,,,,,,,,,,,
,,,,,,,,,,,,l,Incorrect,0,75,75,112,1,t1.png,t1.png,0,0.97829,20 ,Male,2020-11-02_14h31.26.748,torte-q,2020.1.3,Win32,60,1.653635,,,,,,,,,,,,,,,,,,,,,,,,,,,,,,,,,,,,,,,,,,,,
,,,,,,,,,,,,a,Incorrect,0,76,76,38,1,t3.png,t1.png,2,0.056466,20 ,Male,2020-11-02_14h31.26.748,torte-q,2020.1.3,Win32,60,1.275295,,,,,,,,,,,,,,,,,,,,,,,,,,,,,,,,,,,,,,,,,,,,
,,,,,,,,,,,,,Too slow :(,0,77,77,26,1,t4.png,t2.png,2,0.0591,20 ,Male,2020-11-02_14h31.26.748,torte-q,2020.1.3,Win32,60,,,,,,,,,,,,,,,,,,,,,,,,,,,,,,,,,,,,,,,,,,,,,
,,,,,,,,,,,,a,Incorrect,0,78,78,60,1,t2.png,t4.png,2,0.059078,20 ,Male,2020-11-02_14h31.26.748,torte-q,2020.1.3,Win32,60,1.304015,,,,,,,,,,,,,,,,,,,,,,,,,,,,,,,,,,,,,,,,,,,,
,,,,,,,,,,,,l,Incorrect,0,79,79,49,1,t4.png,t5.png,1,0.9,20 ,Male,2020-11-02_14h31.26.748,torte-q,2020.1.3,Win32,60,1.873825,,,,,,,,,,,,,,,,,,,,,,,,,,,,,,,,,,,,,,,,,,,,
,,,,,,,,,,,,a,Correct!,0,80,80,104,1,t2.png,t3.png,1,0.90855,20 ,Male,2020-11-02_14h31.26.748,torte-q,2020.1.3,Win32,60,1.54002,,,,,,,,,,,,,,,,,,,,,,,,,,,,,,,,,,,,,,,,,,,,
,,,,,,,,,,,,a,Incorrect,0,81,81,72,1,t4.png,t2.png,2,0.059078,20 ,Male,2020-11-02_14h31.26.748,torte-q,2020.1.3,Win32,60,1.663975,,,,,,,,,,,,,,,,,,,,,,,,,,,,,,,,,,,,,,,,,,,,
,,,,,,,,,,,,a,Incorrect,0,82,82,88,1,t3.png,t1.png,2,0.056466,20 ,Male,2020-11-02_14h31.26.748,torte-q,2020.1.3,Win32,60,1.88441,,,,,,,,,,,,,,,,,,,,,,,,,,,,,,,,,,,,,,,,,,,,
,,,,,,,,,,,,a,Correct!,0,83,83,32,1,t4.png,t5.png,1,0.90025,20 ,Male,2020-11-02_14h31.26.748,torte-q,2020.1.3,Win32,60,1.064665,,,,,,,,,,,,,,,,,,,,,,,,,,,,,,,,,,,,,,,,,,,,
,,,,,,,,,,,,a,Correct!,0,84,84,59,1,t5.png,t4.png,1,0.9,20 ,Male,2020-11-02_14h31.26.748,torte-q,2020.1.3,Win32,60,1.54687,,,,,,,,,,,,,,,,,,,,,,,,,,,,,,,,,,,,,,,,,,,,
,,,,,,,,,,,,l,Correct!,0,85,85,102,1,t4.png,t2.png,2,0.059078,20 ,Male,2020-11-02_14h31.26.748,torte-q,2020.1.3,Win32,60,1.49664,,,,,,,,,,,,,,,,,,,,,,,,,,,,,,,,,,,,,,,,,,,,
,,,,,,,,,,,,l,Correct!,0,86,86,61,1,t1.png,t4.png,3,0.0000131,20 ,Male,2020-11-02_14h31.26.748,torte-q,2020.1.3,Win32,60,1.652935,,,,,,,,,,,,,,,,,,,,,,,,,,,,,,,,,,,,,,,,,,,,
,,,,,,,,,,,,a,Incorrect,0,87,87,56,1,t5.png,t1.png,4,9.55E-11,20 ,Male,2020-11-02_14h31.26.748,torte-q,2020.1.3,Win32,60,1.47208,,,,,,,,,,,,,,,,,,,,,,,,,,,,,,,,,,,,,,,,,,,,
,,,,,,,,,,,,a,Correct!,0,88,88,71,1,t5.png,t5.png,0,0.97829,20 ,Male,2020-11-02_14h31.26.748,torte-q,2020.1.3,Win32,60,1.889905,,,,,,,,,,,,,,,,,,,,,,,,,,,,,,,,,,,,,,,,,,,,
,,,,,,,,,,,,a,Incorrect,0,89,89,82,1,t5.png,t1.png,4,9.55E-11,20 ,Male,2020-11-02_14h31.26.748,torte-q,2020.1.3,Win32,60,1.52652,,,,,,,,,,,,,,,,,,,,,,,,,,,,,,,,,,,,,,,,,,,,
,,,,,,,,,,,,l,Incorrect,0,90,90,101,1,t4.png,t5.png,1,0.90025,20 ,Male,2020-11-02_14h31.26.748,torte-q,2020.1.3,Win32,60,1.417795,,,,,,,,,,,,,,,,,,,,,,,,,,,,,,,,,,,,,,,,,,,,
,,,,,,,,,,,,l,Incorrect,0,91,91,48,1,t5.png,t5.png,0,0.97829,20 ,Male,2020-11-02_14h31.26.748,torte-q,2020.1.3,Win32,60,1.508975,,,,,,,,,,,,,,,,,,,,,,,,,,,,,,,,,,,,,,,,,,,,
,,,,,,,,,,,,a,Correct!,0,92,92,70,1,t5.png,t5.png,0,0.978,20 ,Male,2020-11-02_14h31.26.748,torte-q,2020.1.3,Win32,60,0.93891,,,,,,,,,,,,,,,,,,,,,,,,,,,,,,,,,,,,,,,,,,,,
,,,,,,,,,,,,a,Incorrect,0,93,93,27,1,t3.png,t1.png,2,0.0565,20 ,Male,2020-11-02_14h31.26.748,torte-q,2020.1.3,Win32,60,0.94311,,,,,,,,,,,,,,,,,,,,,,,,,,,,,,,,,,,,,,,,,,,,
,,,,,,,,,,,,a,Incorrect,0,94,94,53,1,t3.png,t1.png,2,0.056466,20 ,Male,2020-11-02_14h31.26.748,torte-q,2020.1.3,Win32,60,0.865155,,,,,,,,,,,,,,,,,,,,,,,,,,,,,,,,,,,,,,,,,,,,
,,,,,,,,,,,,a,Incorrect,0,95,95,87,1,t5.png,t1.png,4,9.55E-11,20 ,Male,2020-11-02_14h31.26.748,torte-q,2020.1.3,Win32,60,1.248755,,,,,,,,,,,,,,,,,,,,,,,,,,,,,,,,,,,,,,,,,,,,
,,,,,,,,,,,,l,Correct!,0,96,96,91,1,t1.png,t4.png,3,0.0000131,20 ,Male,2020-11-02_14h31.26.748,torte-q,2020.1.3,Win32,60,2.356245,,,,,,,,,,,,,,,,,,,,,,,,,,,,,,,,,,,,,,,,,,,,
,,,,,,,,,,,,a,Correct!,0,97,97,21,1,t5.png,t4.png,1,0.90025,20 ,Male,2020-11-02_14h31.26.748,torte-q,2020.1.3,Win32,60,1.09721,,,,,,,,,,,,,,,,,,,,,,,,,,,,,,,,,,,,,,,,,,,,
,,,,,,,,,,,,a,Incorrect,0,98,98,73,1,t4.png,t2.png,2,0.059078,20 ,Male,2020-11-02_14h31.26.748,torte-q,2020.1.3,Win32,60,1.20454,,,,,,,,,,,,,,,,,,,,,,,,,,,,,,,,,,,,,,,,,,,,
,,,,,,,,,,,,l,Correct!,0,99,99,117,1,t1.png,t5.png,4,9.55E-11,20 ,Male,2020-11-02_14h31.26.748,torte-q,2020.1.3,Win32,60,0.89471,,,,,,,,,,,,,,,,,,,,,,,,,,,,,,,,,,,,,,,,,,,,
,,,,,,,,,,,,a,Correct!,0,100,100,65,1,t4.png,t5.png,1,0.90025,20 ,Male,2020-11-02_14h31.26.748,torte-q,2020.1.3,Win32,60,1.166605,,,,,,,,,,,,,,,,,,,,,,,,,,,,,,,,,,,,,,,,,,,,
,,,,,,,,,,,,l,Correct!,0,101,101,19,1,t4.png,t2.png,2,0.059078,20 ,Male,2020-11-02_14h31.26.748,torte-q,2020.1.3,Win32,60,1.599495,,,,,,,,,,,,,,,,,,,,,,,,,,,,,,,,,,,,,,,,,,,,
,,,,,,,,,,,,l,Correct!,0,102,102,12,1,t5.png,t1.png,4,9.55E-11,20 ,Male,2020-11-02_14h31.26.748,torte-q,2020.1.3,Win32,60,2.076175,,,,,,,,,,,,,,,,,,,,,,,,,,,,,,,,,,,,,,,,,,,,
,,,,,,,,,,,,l,Correct!,0,103,103,0,1,t5.png,t1.png,4,9.55E-11,20 ,Male,2020-11-02_14h31.26.748,torte-q,2020.1.3,Win32,60,1.12242,,,,,,,,,,,,,,,,,,,,,,,,,,,,,,,,,,,,,,,,,,,,
,,,,,,,,,,,,a,Correct!,0,104,104,2,1,t3.png,t2.png,1,0.90855,20 ,Male,2020-11-02_14h31.26.748,torte-q,2020.1.3,Win32,60,1.033195,,,,,,,,,,,,,,,,,,,,,,,,,,,,,,,,,,,,,,,,,,,,
,,,,,,,,,,,,a,Incorrect,0,105,105,83,1,t3.png,t1.png,2,0.056466,20 ,Male,2020-11-02_14h31.26.748,torte-q,2020.1.3,Win32,60,0.834265,,,,,,,,,,,,,,,,,,,,,,,,,,,,,,,,,,,,,,,,,,,,
,,,,,,,,,,,,l,Correct!,0,106,106,54,1,t1.png,t5.png,4,9.55E-11,20 ,Male,2020-11-02_14h31.26.748,torte-q,2020.1.3,Win32,60,2.06356,,,,,,,,,,,,,,,,,,,,,,,,,,,,,,,,,,,,,,,,,,,,
,,,,,,,,,,,,a,Correct!,0,107,107,64,1,t1.png,t1.png,0,0.978,20 ,Male,2020-11-02_14h31.26.748,torte-q,2020.1.3,Win32,60,1.17899,,,,,,,,,,,,,,,,,,,,,,,,,,,,,,,,,,,,,,,,,,,,
,,,,,,,,,,,,a,Correct!,0,108,108,22,1,t2.png,t3.png,1,0.90855,20 ,Male,2020-11-02_14h31.26.748,torte-q,2020.1.3,Win32,60,1.9683,,,,,,,,,,,,,,,,,,,,,,,,,,,,,,,,,,,,,,,,,,,,
,,,,,,,,,,,,a,Incorrect,0,109,109,14,1,t2.png,t4.png,2,0.059078,20 ,Male,2020-11-02_14h31.26.748,torte-q,2020.1.3,Win32,60,1.031465,,,,,,,,,,,,,,,,,,,,,,,,,,,,,,,,,,,,,,,,,,,,
,,,,,,,,,,,,,Too slow :(,0,110,110,39,1,t3.png,t2.png,1,0.90855,20 ,Male,2020-11-02_14h31.26.748,torte-q,2020.1.3,Win32,60,,,,,,,,,,,,,,,,,,,,,,,,,,,,,,,,,,,,,,,,,,,,,
,,,,,,,,,,,,a,Incorrect,0,111,111,111,1,t5.png,t1.png,4,9.55E-11,20 ,Male,2020-11-02_14h31.26.748,torte-q,2020.1.3,Win32,60,1.88028,,,,,,,,,,,,,,,,,,,,,,,,,,,,,,,,,,,,,,,,,,,,
,,,,,,,,,,,,a,Incorrect,0,112,112,115,1,t2.png,t4.png,2,0.059078,20 ,Male,2020-11-02_14h31.26.748,torte-q,2020.1.3,Win32,60,2.074165,,,,,,,,,,,,,,,,,,,,,,,,,,,,,,,,,,,,,,,,,,,,
,,,,,,,,,,,,a,Correct!,0,113,113,58,1,t5.png,t4.png,1,0.90025,20 ,Male,2020-11-02_14h31.26.748,torte-q,2020.1.3,Win32,60,1.897385,,,,,,,,,,,,,,,,,,,,,,,,,,,,,,,,,,,,,,,,,,,,
,,,,,,,,,,,,a,Incorrect,0,114,114,43,1,t4.png,t2.png,2,0.059078,20 ,Male,2020-11-02_14h31.26.748,torte-q,2020.1.3,Win32,60,0.931485,,,,,,,,,,,,,,,,,,,,,,,,,,,,,,,,,,,,,,,,,,,,
,,,,,,,,,,,,l,Incorrect,0,115,115,97,1,t5.png,t5.png,0,0.97829,20 ,Male,2020-11-02_14h31.26.748,torte-q,2020.1.3,Win32,60,0.88804,,,,,,,,,,,,,,,,,,,,,,,,,,,,,,,,,,,,,,,,,,,,
,,,,,,,,,,,,l,Correct!,0,116,116,93,1,t2.png,t4.png,2,0.059078,20 ,Male,2020-11-02_14h31.26.748,torte-q,2020.1.3,Win32,60,0.416065,,,,,,,,,,,,,,,,,,,,,,,,,,,,,,,,,,,,,,,,,,,,
,,,,,,,,,,,,l,Correct!,0,117,117,90,1,t1.png,t5.png,4,9.55E-11,20 ,Male,2020-11-02_14h31.26.748,torte-q,2020.1.3,Win32,60,0.35677,,,,,,,,,,,,,,,,,,,,,,,,,,,,,,,,,,,,,,,,,,,,
,,,,,,,,,,,,a,Correct!,0,118,118,113,1,t5.png,t4.png,1,0.9,20 ,Male,2020-11-02_14h31.26.748,torte-q,2020.1.3,Win32,60,1.13109,,,,,,,,,,,,,,,,,,,,,,,,,,,,,,,,,,,,,,,,,,,,
,,,,,,,,,,,,l,Correct!,0,119,119,37,1,t1.png,t4.png,3,0.0000131,20 ,Male,2020-11-02_14h31.26.748,torte-q,2020.1.3,Win32,60,0.80923,,,,,,,,,,,,,,,,,,,,,,,,,,,,,,,,,,,,,,,,,,,,
,,,,,,,,,,,,a,Correct!,,,,,,t4.png,t3.png,1,0.90855,20 ,Male,2020-11-02_14h31.26.748,torte-q,2020.1.3,Win32,60,1.520905,space,6.83552,space,8.541405,0,0,0,45,1,,,,,,,,,,,,,,,,,,,,,,,,,,,,,,,,,,,
,,,,,,,,,,,,a,Correct!,,,,,,t3.png,t4.png,1,0.90855,20 ,Male,2020-11-02_14h31.26.748,torte-q,2020.1.3,Win32,60,1.014135,,,,,0,1,1,84,1,,,,,,,,,,,,,,,,,,,,,,,,,,,,,,,,,,,
,,,,,,,,,,,,a,Correct!,,,,,,t5.png,t5.png,0,0.97829,20 ,Male,2020-11-02_14h31.26.748,torte-q,2020.1.3,Win32,60,0.31413,,,,,0,2,2,73,1,,,,,,,,,,,,,,,,,,,,,,,,,,,,,,,,,,,
,,,,,,,,,,,,a,Correct!,,,,,,t3.png,t2.png,1,0.90855,20 ,Male,2020-11-02_14h31.26.748,torte-q,2020.1.3,Win32,60,1.11981,,,,,0,3,3,18,1,,,,,,,,,,,,,,,,,,,,,,,,,,,,,,,,,,,
,,,,,,,,,,,,l,Incorrect,,,,,,t4.png,t5.png,1,0.9,20 ,Male,2020-11-02_14h31.26.748,torte-q,2020.1.3,Win32,60,1.73419,,,,,0,4,4,115,1,,,,,,,,,,,,,,,,,,,,,,,,,,,,,,,,,,,
,,,,,,,,,,,,a,Incorrect,,,,,,t3.png,t5.png,2,0.056466,20 ,Male,2020-11-02_14h31.26.748,torte-q,2020.1.3,Win32,60,0.668355,,,,,0,5,5,6,1,,,,,,,,,,,,,,,,,,,,,,,,,,,,,,,,,,,
,,,,,,,,,,,,a,Correct!,,,,,,t2.png,t1.png,1,0.90025,20 ,Male,2020-11-02_14h31.26.748,torte-q,2020.1.3,Win32,60,1.28613,,,,,0,6,6,5,1,,,,,,,,,,,,,,,,,,,,,,,,,,,,,,,,,,,
,,,,,,,,,,,,l,Incorrect,,,,,,t5.png,t5.png,0,0.978,20 ,Male,2020-11-02_14h31.26.748,torte-q,2020.1.3,Win32,60,0.90065,,,,,0,7,7,117,1,,,,,,,,,,,,,,,,,,,,,,,,,,,,,,,,,,,
,,,,,,,,,,,,l,Correct!,,,,,,t1.png,t5.png,4,9.55E-11,20 ,Male,2020-11-02_14h31.26.748,torte-q,2020.1.3,Win32,60,1.167415,,,,,0,8,8,12,1,,,,,,,,,,,,,,,,,,,,,,,,,,,,,,,,,,,
,,,,,,,,,,,,,Too slow :(,,,,,,t4.png,t3.png,1,0.909,20 ,Male,2020-11-02_14h31.26.748,torte-q,2020.1.3,Win32,60,,,,,,0,9,9,20,1,,,,,,,,,,,,,,,,,,,,,,,,,,,,,,,,,,,
,,,,,,,,,,,,l,Correct!,,,,,,t1.png,t2.png,1,0.9,20 ,Male,2020-11-02_14h31.26.748,torte-q,2020.1.3,Win32,60,1.247765,,,,,0,10,10,1,1,,,,,,,,,,,,,,,,,,,,,,,,,,,,,,,,,,,
,,,,,,,,,,,,l,Incorrect,,,,,,t2.png,t3.png,1,0.90855,20 ,Male,2020-11-02_14h31.26.748,torte-q,2020.1.3,Win32,60,1.160185,,,,,0,11,11,10,1,,,,,,,,,,,,,,,,,,,,,,,,,,,,,,,,,,,
,,,,,,,,,,,,a,Incorrect,,,,,,t1.png,t4.png,3,0.0000131,20 ,Male,2020-11-02_14h31.26.748,torte-q,2020.1.3,Win32,60,1.620755,,,,,0,12,12,107,1,,,,,,,,,,,,,,,,,,,,,,,,,,,,,,,,,,,
,,,,,,,,,,,,l,Correct!,,,,,,t2.png,t4.png,2,0.0591,20 ,Male,2020-11-02_14h31.26.748,torte-q,2020.1.3,Win32,60,1.14766,,,,,0,13,13,15,1,,,,,,,,,,,,,,,,,,,,,,,,,,,,,,,,,,,
,,,,,,,,,,,,l,Correct!,,,,,,t2.png,t5.png,3,0.0000131,20 ,Male,2020-11-02_14h31.26.748,torte-q,2020.1.3,Win32,60,1.62914,,,,,0,14,14,104,1,,,,,,,,,,,,,,,,,,,,,,,,,,,,,,,,,,,
,,,,,,,,,,,,a,Correct!,,,,,,t4.png,t5.png,1,0.90025,20 ,Male,2020-11-02_14h31.26.748,torte-q,2020.1.3,Win32,60,1.44046,,,,,0,15,15,103,1,,,,,,,,,,,,,,,,,,,,,,,,,,,,,,,,,,,
,,,,,,,,,,,,l,Correct!,,,,,,t1.png,t1.png,0,0.97829,20 ,Male,2020-11-02_14h31.26.748,torte-q,2020.1.3,Win32,60,1.748705,,,,,0,16,16,78,1,,,,,,,,,,,,,,,,,,,,,,,,,,,,,,,,,,,
,,,,,,,,,,,,l,Incorrect,,,,,,t5.png,t5.png,0,0.97829,20 ,Male,2020-11-02_14h31.26.748,torte-q,2020.1.3,Win32,60,1.10357,,,,,0,17,17,94,1,,,,,,,,,,,,,,,,,,,,,,,,,,,,,,,,,,,
,,,,,,,,,,,,a,Incorrect,,,,,,t5.png,t1.png,4,9.55E-11,20 ,Male,2020-11-02_14h31.26.748,torte-q,2020.1.3,Win32,60,2.160305,,,,,0,18,18,102,1,,,,,,,,,,,,,,,,,,,,,,,,,,,,,,,,,,,
,,,,,,,,,,,,a,Correct!,,,,,,t2.png,t2.png,0,0.98115,20 ,Male,2020-11-02_14h31.26.748,torte-q,2020.1.3,Win32,60,1.43743,,,,,0,19,19,59,1,,,,,,,,,,,,,,,,,,,,,,,,,,,,,,,,,,,
,,,,,,,,,,,,l,Incorrect,,,,,,t1.png,t1.png,0,0.97829,20 ,Male,2020-11-02_14h31.26.748,torte-q,2020.1.3,Win32,60,1.172835,,,,,0,20,20,9,1,,,,,,,,,,,,,,,,,,,,,,,,,,,,,,,,,,,
,,,,,,,,,,,,a,Incorrect,,,,,,t3.png,t1.png,2,0.0565,20 ,Male,2020-11-02_14h31.26.748,torte-q,2020.1.3,Win32,60,1.393955,,,,,0,21,21,31,1,,,,,,,,,,,,,,,,,,,,,,,,,,,,,,,,,,,
,,,,,,,,,,,,a,Incorrect,,,,,,t5.png,t1.png,4,9.55E-11,20 ,Male,2020-11-02_14h31.26.748,torte-q,2020.1.3,Win32,60,1.85037,,,,,0,22,22,43,1,,,,,,,,,,,,,,,,,,,,,,,,,,,,,,,,,,,
,,,,,,,,,,,,a,Incorrect,,,,,,t3.png,t5.png,2,0.0565,20 ,Male,2020-11-02_14h31.26.748,torte-q,2020.1.3,Win32,60,0.92675,,,,,0,23,23,30,1,,,,,,,,,,,,,,,,,,,,,,,,,,,,,,,,,,,
,,,,,,,,,,,,a,Incorrect,,,,,,t3.png,t1.png,2,0.056466,20 ,Male,2020-11-02_14h31.26.748,torte-q,2020.1.3,Win32,60,0.705295,,,,,0,24,24,0,1,,,,,,,,,,,,,,,,,,,,,,,,,,,,,,,,,,,
,,,,,,,,,,,,a,Correct!,,,,,,t3.png,t2.png,1,0.90855,20 ,Male,2020-11-02_14h31.26.748,torte-q,2020.1.3,Win32,60,1.186055,,,,,0,25,25,97,1,,,,,,,,,,,,,,,,,,,,,,,,,,,,,,,,,,,
,,,,,,,,,,,,l,Incorrect,,,,,,t2.png,t1.png,1,0.90025,20 ,Male,2020-11-02_14h31.26.748,torte-q,2020.1.3,Win32,60,1.61505,,,,,0,26,26,19,1,,,,,,,,,,,,,,,,,,,,,,,,,,,,,,,,,,,
,,,,,,,,,,,,a,Incorrect,,,,,,t5.png,t3.png,2,0.056466,20 ,Male,2020-11-02_14h31.26.748,torte-q,2020.1.3,Win32,60,1.18421,,,,,0,27,27,108,1,,,,,,,,,,,,,,,,,,,,,,,,,,,,,,,,,,,
,,,,,,,,,,,,,Too slow :(,,,,,,t3.png,t4.png,1,0.909,20 ,Male,2020-11-02_14h31.26.748,torte-q,2020.1.3,Win32,60,,,,,,0,28,28,82,1,,,,,,,,,,,,,,,,,,,,,,,,,,,,,,,,,,,
,,,,,,,,,,,,a,Correct!,,,,,,t3.png,t2.png,1,0.909,20 ,Male,2020-11-02_14h31.26.748,torte-q,2020.1.3,Win32,60,0.582155,,,,,0,29,29,3,1,,,,,,,,,,,,,,,,,,,,,,,,,,,,,,,,,,,
,,,,,,,,,,,,a,Correct!,,,,,,t4.png,t5.png,1,0.90025,20 ,Male,2020-11-02_14h31.26.748,torte-q,2020.1.3,Win32,60,1.96132,,,,,0,30,30,113,1,,,,,,,,,,,,,,,,,,,,,,,,,,,,,,,,,,,
,,,,,,,,,,,,a,Incorrect,,,,,,t4.png,t1.png,3,0.0000131,20 ,Male,2020-11-02_14h31.26.748,torte-q,2020.1.3,Win32,60,1.06967,,,,,0,31,31,61,1,,,,,,,,,,,,,,,,,,,,,,,,,,,,,,,,,,,
,,,,,,,,,,,,a,Incorrect,,,,,,t3.png,t5.png,2,0.056466,20 ,Male,2020-11-02_14h31.26.748,torte-q,2020.1.3,Win32,60,1.24752,,,,,0,32,32,14,1,,,,,,,,,,,,,,,,,,,,,,,,,,,,,,,,,,,
,,,,,,,,,,,,a,Correct!,,,,,,t4.png,t3.png,1,0.909,20 ,Male,2020-11-02_14h31.26.748,torte-q,2020.1.3,Win32,60,1.280835,,,,,0,33,33,46,1,,,,,,,,,,,,,,,,,,,,,,,,,,,,,,,,,,,
,,,,,,,,,,,,l,Correct!,,,,,,t2.png,t4.png,2,0.059078,20 ,Male,2020-11-02_14h31.26.748,torte-q,2020.1.3,Win32,60,2.425485,,,,,0,34,34,77,1,,,,,,,,,,,,,,,,,,,,,,,,,,,,,,,,,,,
,,,,,,,,,,,,a,Incorrect,,,,,,t3.png,t1.png,2,0.056466,20 ,Male,2020-11-02_14h31.26.748,torte-q,2020.1.3,Win32,60,0.66303,,,,,0,35,35,32,1,,,,,,,,,,,,,,,,,,,,,,,,,,,,,,,,,,,
,,,,,,,,,,,,a,Correct!,,,,,,t2.png,t1.png,1,0.9,20 ,Male,2020-11-02_14h31.26.748,torte-q,2020.1.3,Win32,60,1.377605,,,,,0,36,36,118,1,,,,,,,,,,,,,,,,,,,,,,,,,,,,,,,,,,,
,,,,,,,,,,,,a,Correct!,,,,,,t3.png,t4.png,1,0.909,20 ,Male,2020-11-02_14h31.26.748,torte-q,2020.1.3,Win32,60,0.66515,,,,,0,37,37,89,1,,,,,,,,,,,,,,,,,,,,,,,,,,,,,,,,,,,
,,,,,,,,,,,,a,Correct!,,,,,,t4.png,t3.png,1,0.90855,20 ,Male,2020-11-02_14h31.26.748,torte-q,2020.1.3,Win32,60,1.16803,,,,,0,38,38,35,1,,,,,,,,,,,,,,,,,,,,,,,,,,,,,,,,,,,
,,,,,,,,,,,,l,Incorrect,,,,,,t4.png,t5.png,1,0.90025,20 ,Male,2020-11-02_14h31.26.748,torte-q,2020.1.3,Win32,60,1.200465,,,,,0,39,39,47,1,,,,,,,,,,,,,,,,,,,,,,,,,,,,,,,,,,,
,,,,,,,,,,,,,Too slow :(,,,,,,t4.png,t2.png,2,0.059078,20 ,Male,2020-11-02_14h31.26.748,torte-q,2020.1.3,Win32,60,,,,,,0,40,40,110,1,,,,,,,,,,,,,,,,,,,,,,,,,,,,,,,,,,,
,,,,,,,,,,,,a,Correct!,,,,,,t2.png,t2.png,0,0.98115,20 ,Male,2020-11-02_14h31.26.748,torte-q,2020.1.3,Win32,60,0.086535,,,,,0,41,41,7,1,,,,,,,,,,,,,,,,,,,,,,,,,,,,,,,,,,,
,,,,,,,,,,,,a,Incorrect,,,,,,t5.png,t1.png,4,9.55E-11,20 ,Male,2020-11-02_14h31.26.748,torte-q,2020.1.3,Win32,60,1.33913,,,,,0,42,42,71,1,,,,,,,,,,,,,,,,,,,,,,,,,,,,,,,,,,,
,,,,,,,,,,,,a,Incorrect,,,,,,t1.png,t4.png,3,0.0000131,20 ,Male,2020-11-02_14h31.26.748,torte-q,2020.1.3,Win32,60,2.27581,,,,,0,43,43,81,1,,,,,,,,,,,,,,,,,,,,,,,,,,,,,,,,,,,
,,,,,,,,,,,,l,Correct!,,,,,,t1.png,t4.png,3,0.0000131,20 ,Male,2020-11-02_14h31.26.748,torte-q,2020.1.3,Win32,60,1.03161,,,,,0,44,44,17,1,,,,,,,,,,,,,,,,,,,,,,,,,,,,,,,,,,,
,,,,,,,,,,,,a,Incorrect,,,,,,t1.png,t3.png,2,0.056466,20 ,Male,2020-11-02_14h31.26.748,torte-q,2020.1.3,Win32,60,1.36461,,,,,0,45,45,63,1,,,,,,,,,,,,,,,,,,,,,,,,,,,,,,,,,,,
,,,,,,,,,,,,a,Correct!,,,,,,t2.png,t3.png,1,0.90855,20 ,Male,2020-11-02_14h31.26.748,torte-q,2020.1.3,Win32,60,1.951905,,,,,0,46,46,111,1,,,,,,,,,,,,,,,,,,,,,,,,,,,,,,,,,,,
,,,,,,,,,,,,l,Incorrect,,,,,,t2.png,t3.png,1,0.90855,20 ,Male,2020-11-02_14h31.26.748,torte-q,2020.1.3,Win32,60,1.573995,,,,,0,47,47,68,1,,,,,,,,,,,,,,,,,,,,,,,,,,,,,,,,,,,
,,,,,,,,,,,,a,Incorrect,,,,,,t2.png,t4.png,2,0.059078,20 ,Male,2020-11-02_14h31.26.748,torte-q,2020.1.3,Win32,60,1.39912,,,,,0,48,48,37,1,,,,,,,,,,,,,,,,,,,,,,,,,,,,,,,,,,,
,,,,,,,,,,,,a,Correct!,,,,,,t3.png,t2.png,1,0.909,20 ,Male,2020-11-02_14h31.26.748,torte-q,2020.1.3,Win32,60,0.7892,,,,,0,49,49,23,1,,,,,,,,,,,,,,,,,,,,,,,,,,,,,,,,,,,
,,,,,,,,,,,,l,Incorrect,,,,,,t5.png,t5.png,0,0.97829,20 ,Male,2020-11-02_14h31.26.748,torte-q,2020.1.3,Win32,60,1.34941,,,,,0,50,50,70,1,,,,,,,,,,,,,,,,,,,,,,,,,,,,,,,,,,,
,,,,,,,,,,,,a,Incorrect,,,,,,t2.png,t5.png,3,0.0000131,20 ,Male,2020-11-02_14h31.26.748,torte-q,2020.1.3,Win32,60,1.621415,,,,,0,51,51,8,1,,,,,,,,,,,,,,,,,,,,,,,,,,,,,,,,,,,
,,,,,,,,,,,,a,Incorrect,,,,,,t1.png,t3.png,2,0.056466,20 ,Male,2020-11-02_14h31.26.748,torte-q,2020.1.3,Win32,60,1.222225,,,,,0,52,52,69,1,,,,,,,,,,,,,,,,,,,,,,,,,,,,,,,,,,,
,,,,,,,,,,,,,Too slow :(,,,,,,t1.png,t4.png,3,0.0000131,20 ,Male,2020-11-02_14h31.26.748,torte-q,2020.1.3,Win32,60,,,,,,0,53,53,92,1,,,,,,,,,,,,,,,,,,,,,,,,,,,,,,,,,,,
,,,,,,,,,,,,l,Correct!,,,,,,t1.png,t5.png,4,9.55E-11,20 ,Male,2020-11-02_14h31.26.748,torte-q,2020.1.3,Win32,60,1.020635,,,,,0,54,54,41,1,,,,,,,,,,,,,,,,,,,,,,,,,,,,,,,,,,,
,,,,,,,,,,,,a,Correct!,,,,,,t4.png,t4.png,0,0.98115,20 ,Male,2020-11-02_14h31.26.748,torte-q,2020.1.3,Win32,60,1.253925,,,,,0,55,55,52,1,,,,,,,,,,,,,,,,,,,,,,,,,,,,,,,,,,,
,,,,,,,,,,,,a,Incorrect,,,,,,t4.png,t1.png,3,0.0000131,20 ,Male,2020-11-02_14h31.26.748,torte-q,2020.1.3,Win32,60,1.26824,,,,,0,56,56,13,1,,,,,,,,,,,,,,,,,,,,,,,,,,,,,,,,,,,
,,,,,,,,,,,,a,Correct!,,,,,,t3.png,t4.png,1,0.909,20 ,Male,2020-11-02_14h31.26.748,torte-q,2020.1.3,Win32,60,0.908935,,,,,0,57,57,106,1,,,,,,,,,,,,,,,,,,,,,,,,,,,,,,,,,,,
,,,,,,,,,,,,a,Incorrect,,,,,,t1.png,t5.png,4,9.55E-11,20 ,Male,2020-11-02_14h31.26.748,torte-q,2020.1.3,Win32,60,1.33824,,,,,0,58,58,16,1,,,,,,,,,,,,,,,,,,,,,,,,,,,,,,,,,,,
,,,,,,,,,,,,l,Correct!,,,,,,t2.png,t5.png,3,0.0000131,20 ,Male,2020-11-02_14h31.26.748,torte-q,2020.1.3,Win32,60,1.4372,,,,,0,59,59,40,1,,,,,,,,,,,,,,,,,,,,,,,,,,,,,,,,,,,
,,,,,,,,,,,,a,Incorrect,,,,,,t2.png,t4.png,2,0.059078,20 ,Male,2020-11-02_14h31.26.748,torte-q,2020.1.3,Win32,60,1.21511,,,,,0,60,60,24,1,,,,,,,,,,,,,,,,,,,,,,,,,,,,,,,,,,,
,,,,,,,,,,,,a,Correct!,,,,,,t1.png,t2.png,1,0.90025,20 ,Male,2020-11-02_14h31.26.748,torte-q,2020.1.3,Win32,60,1.07005,,,,,0,61,61,105,1,,,,,,,,,,,,,,,,,,,,,,,,,,,,,,,,,,,
,,,,,,,,,,,,a,Incorrect,,,,,,t5.png,t1.png,4,9.55E-11,20 ,Male,2020-11-02_14h31.26.748,torte-q,2020.1.3,Win32,60,0.916895,,,,,0,62,62,22,1,,,,,,,,,,,,,,,,,,,,,,,,,,,,,,,,,,,
,,,,,,,,,,,,a,Incorrect,,,,,,t1.png,t3.png,2,0.056466,20 ,Male,2020-11-02_14h31.26.748,torte-q,2020.1.3,Win32,60,1.730905,,,,,0,63,63,60,1,,,,,,,,,,,,,,,,,,,,,,,,,,,,,,,,,,,
,,,,,,,,,,,,,Too slow :(,,,,,,t1.png,t1.png,0,0.97829,20 ,Male,2020-11-02_14h31.26.748,torte-q,2020.1.3,Win32,60,,,,,,0,64,64,67,1,,,,,,,,,,,,,,,,,,,,,,,,,,,,,,,,,,,
,,,,,,,,,,,,a,Correct!,,,,,,t5.png,t4.png,1,0.90025,20 ,Male,2020-11-02_14h31.26.748,torte-q,2020.1.3,Win32,60,0.627505,,,,,0,65,65,27,1,,,,,,,,,,,,,,,,,,,,,,,,,,,,,,,,,,,
,,,,,,,,,,,,a,Incorrect,,,,,,t3.png,t5.png,2,0.0565,20 ,Male,2020-11-02_14h31.26.748,torte-q,2020.1.3,Win32,60,0.77304,,,,,0,66,66,83,1,,,,,,,,,,,,,,,,,,,,,,,,,,,,,,,,,,,
,,,,,,,,,,,,a,Correct!,,,,,,t5.png,t4.png,1,0.90025,20 ,Male,2020-11-02_14h31.26.748,torte-q,2020.1.3,Win32,60,1.191085,,,,,0,67,67,26,1,,,,,,,,,,,,,,,,,,,,,,,,,,,,,,,,,,,
,,,,,,,,,,,,l,Incorrect,,,,,,t1.png,t2.png,1,0.90025,20 ,Male,2020-11-02_14h31.26.748,torte-q,2020.1.3,Win32,60,1.090265,,,,,0,68,68,33,1,,,,,,,,,,,,,,,,,,,,,,,,,,,,,,,,,,,
,,,,,,,,,,,,a,Correct!,,,,,,t1.png,t1.png,0,0.978,20 ,Male,2020-11-02_14h31.26.748,torte-q,2020.1.3,Win32,60,1.14917,,,,,0,69,69,28,1,,,,,,,,,,,,,,,,,,,,,,,,,,,,,,,,,,,
,,,,,,,,,,,,a,Correct!,,,,,,t2.png,t2.png,0,0.981,20 ,Male,2020-11-02_14h31.26.748,torte-q,2020.1.3,Win32,60,1.150425,,,,,0,70,70,101,1,,,,,,,,,,,,,,,,,,,,,,,,,,,,,,,,,,,
,,,,,,,,,,,,a,Incorrect,,,,,,t4.png,t1.png,3,0.0000131,20 ,Male,2020-11-02_14h31.26.748,torte-q,2020.1.3,Win32,60,0.672395,,,,,0,71,71,42,1,,,,,,,,,,,,,,,,,,,,,,,,,,,,,,,,,,,
,,,,,,,,,,,,a,Correct!,,,,,,t4.png,t3.png,1,0.90855,20 ,Male,2020-11-02_14h31.26.748,torte-q,2020.1.3,Win32,60,1.02343,,,,,0,72,72,75,1,,,,,,,,,,,,,,,,,,,,,,,,,,,,,,,,,,,
,,,,,,,,,,,,a,Incorrect,,,,,,t4.png,t2.png,2,0.059078,20 ,Male,2020-11-02_14h31.26.748,torte-q,2020.1.3,Win32,60,0.92522,,,,,0,73,73,88,1,,,,,,,,,,,,,,,,,,,,,,,,,,,,,,,,,,,
,,,,,,,,,,,,l,Correct!,,,,,,t4.png,t2.png,2,0.059078,20 ,Male,2020-11-02_14h31.26.748,torte-q,2020.1.3,Win32,60,1.307115,,,,,0,74,74,109,1,,,,,,,,,,,,,,,,,,,,,,,,,,,,,,,,,,,
,,,,,,,,,,,,a,Incorrect,,,,,,t4.png,t1.png,3,0.0000131,20 ,Male,2020-11-02_14h31.26.748,torte-q,2020.1.3,Win32,60,1.37387,,,,,0,75,75,48,1,,,,,,,,,,,,,,,,,,,,,,,,,,,,,,,,,,,
,,,,,,,,,,,,a,Incorrect,,,,,,t5.png,t3.png,2,0.056466,20 ,Male,2020-11-02_14h31.26.748,torte-q,2020.1.3,Win32,60,1.25213,,,,,0,76,76,114,1,,,,,,,,,,,,,,,,,,,,,,,,,,,,,,,,,,,
,,,,,,,,,,,,a,Incorrect,,,,,,t5.png,t2.png,3,0.0000131,20 ,Male,2020-11-02_14h31.26.748,torte-q,2020.1.3,Win32,60,1.601805,,,,,0,77,77,98,1,,,,,,,,,,,,,,,,,,,,,,,,,,,,,,,,,,,
,,,,,,,,,,,,a,Incorrect,,,,,,t5.png,t2.png,3,0.0000131,20 ,Male,2020-11-02_14h31.26.748,torte-q,2020.1.3,Win32,60,2.25891,,,,,0,78,78,116,1,,,,,,,,,,,,,,,,,,,,,,,,,,,,,,,,,,,
,,,,,,,,,,,,l,Incorrect,,,,,,t1.png,t2.png,1,0.90025,20 ,Male,2020-11-02_14h31.26.748,torte-q,2020.1.3,Win32,60,1.416705,,,,,0,79,79,112,1,,,,,,,,,,,,,,,,,,,,,,,,,,,,,,,,,,,
,,,,,,,,,,,,a,Incorrect,,,,,,t5.png,t3.png,2,0.056466,20 ,Male,2020-11-02_14h31.26.748,torte-q,2020.1.3,Win32,60,0.998025,,,,,0,80,80,38,1,,,,,,,,,,,,,,,,,,,,,,,,,,,,,,,,,,,
,,,,,,,,,,,,l,Correct!,,,,,,t5.png,t4.png,1,0.90025,20 ,Male,2020-11-02_14h31.26.748,torte-q,2020.1.3,Win32,60,1.63387,,,,,0,81,81,34,1,,,,,,,,,,,,,,,,,,,,,,,,,,,,,,,,,,,
,,,,,,,,,,,,a,Correct!,,,,,,t2.png,t3.png,1,0.90855,20 ,Male,2020-11-02_14h31.26.748,torte-q,2020.1.3,Win32,60,1.152285,,,,,0,82,82,65,1,,,,,,,,,,,,,,,,,,,,,,,,,,,,,,,,,,,
,,,,,,,,,,,,a,Incorrect,,,,,,t3.png,t5.png,2,0.056466,20 ,Male,2020-11-02_14h31.26.748,torte-q,2020.1.3,Win32,60,0.89109,,,,,0,83,83,44,1,,,,,,,,,,,,,,,,,,,,,,,,,,,,,,,,,,,
,,,,,,,,,,,,a,Incorrect,,,,,,t4.png,t2.png,2,0.059078,20 ,Male,2020-11-02_14h31.26.748,torte-q,2020.1.3,Win32,60,1.32755,,,,,0,84,84,86,1,,,,,,,,,,,,,,,,,,,,,,,,,,,,,,,,,,,
,,,,,,,,,,,,l,Incorrect,,,,,,t3.png,t4.png,1,0.90855,20 ,Male,2020-11-02_14h31.26.748,torte-q,2020.1.3,Win32,60,0.730945,,,,,0,85,85,96,1,,,,,,,,,,,,,,,,,,,,,,,,,,,,,,,,,,,
,,,,,,,,,,,,l,Incorrect,,,,,,t4.png,t4.png,0,0.98115,20 ,Male,2020-11-02_14h31.26.748,torte-q,2020.1.3,Win32,60,1.10295,,,,,0,86,86,80,1,,,,,,,,,,,,,,,,,,,,,,,,,,,,,,,,,,,
,,,,,,,,,,,,a,Incorrect,,,,,,t3.png,t1.png,2,0.056466,20 ,Male,2020-11-02_14h31.26.748,torte-q,2020.1.3,Win32,60,0.554765,,,,,0,87,87,64,1,,,,,,,,,,,,,,,,,,,,,,,,,,,,,,,,,,,
,,,,,,,,,,,,l,Incorrect,,,,,,t2.png,t2.png,0,0.98115,20 ,Male,2020-11-02_14h31.26.748,torte-q,2020.1.3,Win32,60,0.943155,,,,,0,88,88,2,1,,,,,,,,,,,,,,,,,,,,,,,,,,,,,,,,,,,
,,,,,,,,,,,,a,Correct!,,,,,,t5.png,t5.png,0,0.97829,20 ,Male,2020-11-02_14h31.26.748,torte-q,2020.1.3,Win32,60,0.86797,,,,,0,89,89,25,1,,,,,,,,,,,,,,,,,,,,,,,,,,,,,,,,,,,
,,,,,,,,,,,,a,Incorrect,,,,,,t4.png,t2.png,2,0.0591,20 ,Male,2020-11-02_14h31.26.748,torte-q,2020.1.3,Win32,60,0.88722,,,,,0,90,90,36,1,,,,,,,,,,,,,,,,,,,,,,,,,,,,,,,,,,,
,,,,,,,,,,,,a,Incorrect,,,,,,t5.png,t1.png,4,9.55E-11,20 ,Male,2020-11-02_14h31.26.748,torte-q,2020.1.3,Win32,60,1.17612,,,,,0,91,91,100,1,,,,,,,,,,,,,,,,,,,,,,,,,,,,,,,,,,,
,,,,,,,,,,,,l,Incorrect,,,,,,t4.png,t4.png,0,0.98115,20 ,Male,2020-11-02_14h31.26.748,torte-q,2020.1.3,Win32,60,1.15521,,,,,0,92,92,90,1,,,,,,,,,,,,,,,,,,,,,,,,,,,,,,,,,,,
,,,,,,,,,,,,a,Correct!,,,,,,t4.png,t4.png,0,0.98115,20 ,Male,2020-11-02_14h31.26.748,torte-q,2020.1.3,Win32,60,0.903075,,,,,0,93,93,21,1,,,,,,,,,,,,,,,,,,,,,,,,,,,,,,,,,,,
,,,,,,,,,,,,a,Correct!,,,,,,t2.png,t3.png,1,0.909,20 ,Male,2020-11-02_14h31.26.748,torte-q,2020.1.3,Win32,60,1.407865,,,,,0,94,94,74,1,,,,,,,,,,,,,,,,,,,,,,,,,,,,,,,,,,,
,,,,,,,,,,,,a,Correct!,,,,,,t3.png,t2.png,1,0.90855,20 ,Male,2020-11-02_14h31.26.748,torte-q,2020.1.3,Win32,60,1.00471,,,,,0,95,95,53,1,,,,,,,,,,,,,,,,,,,,,,,,,,,,,,,,,,,
,,,,,,,,,,,,a,Correct!,,,,,,t1.png,t2.png,1,0.90025,20 ,Male,2020-11-02_14h31.26.748,torte-q,2020.1.3,Win32,60,1.58221,,,,,0,96,96,72,1,,,,,,,,,,,,,,,,,,,,,,,,,,,,,,,,,,,
,,,,,,,,,,,,l,Correct!,,,,,,t2.png,t4.png,2,0.059078,20 ,Male,2020-11-02_14h31.26.748,torte-q,2020.1.3,Win32,60,1.76678,,,,,0,97,97,11,1,,,,,,,,,,,,,,,,,,,,,,,,,,,,,,,,,,,
,,,,,,,,,,,,a,Correct!,,,,,,t2.png,t1.png,1,0.90025,20 ,Male,2020-11-02_14h31.26.748,torte-q,2020.1.3,Win32,60,0.930785,,,,,0,98,98,4,1,,,,,,,,,,,,,,,,,,,,,,,,,,,,,,,,,,,
,,,,,,,,,,,,a,Incorrect,,,,,,t5.png,t2.png,3,0.0000131,20 ,Male,2020-11-02_14h31.26.748,torte-q,2020.1.3,Win32,60,1.32293,,,,,0,99,99,119,1,,,,,,,,,,,,,,,,,,,,,,,,,,,,,,,,,,,
,,,,,,,,,,,,a,Correct!,,,,,,t5.png,t4.png,1,0.9,20 ,Male,2020-11-02_14h31.26.748,torte-q,2020.1.3,Win32,60,1.94886,,,,,0,100,100,76,1,,,,,,,,,,,,,,,,,,,,,,,,,,,,,,,,,,,
,,,,,,,,,,,,l,Correct!,,,,,,t2.png,t5.png,3,0.0000131,20 ,Male,2020-11-02_14h31.26.748,torte-q,2020.1.3,Win32,60,1.101015,,,,,0,101,101,66,1,,,,,,,,,,,,,,,,,,,,,,,,,,,,,,,,,,,
,,,,,,,,,,,,a,Correct!,,,,,,t4.png,t4.png,0,0.98115,20 ,Male,2020-11-02_14h31.26.748,torte-q,2020.1.3,Win32,60,0.79111,,,,,0,102,102,79,1,,,,,,,,,,,,,,,,,,,,,,,,,,,,,,,,,,,
,,,,,,,,,,,,l,Correct!,,,,,,t2.png,t5.png,3,0.0000131,20 ,Male,2020-11-02_14h31.26.748,torte-q,2020.1.3,Win32,60,2.03139,,,,,0,103,103,95,1,,,,,,,,,,,,,,,,,,,,,,,,,,,,,,,,,,,
,,,,,,,,,,,,a,Incorrect,,,,,,t3.png,t1.png,2,0.056466,20 ,Male,2020-11-02_14h31.26.748,torte-q,2020.1.3,Win32,60,0.74015,,,,,0,104,104,29,1,,,,,,,,,,,,,,,,,,,,,,,,,,,,,,,,,,,
,,,,,,,,,,,,a,Correct!,,,,,,t5.png,t4.png,1,0.9,20 ,Male,2020-11-02_14h31.26.748,torte-q,2020.1.3,Win32,60,0.86011,,,,,0,105,105,49,1,,,,,,,,,,,,,,,,,,,,,,,,,,,,,,,,,,,
,,,,,,,,,,,,a,Incorrect,,,,,,t1.png,t3.png,2,0.056466,20 ,Male,2020-11-02_14h31.26.748,torte-q,2020.1.3,Win32,60,1.191795,,,,,0,106,106,87,1,,,,,,,,,,,,,,,,,,,,,,,,,,,,,,,,,,,
,,,,,,,,,,,,a,Incorrect,,,,,,t5.png,t2.png,3,0.0000131,20 ,Male,2020-11-02_14h31.26.748,torte-q,2020.1.3,Win32,60,0.987375,,,,,0,107,107,91,1,,,,,,,,,,,,,,,,,,,,,,,,,,,,,,,,,,,
,,,,,,,,,,,,a,Incorrect,,,,,,t1.png,t5.png,4,9.55E-11,20 ,Male,2020-11-02_14h31.26.748,torte-q,2020.1.3,Win32,60,1.944145,,,,,0,108,108,55,1,,,,,,,,,,,,,,,,,,,,,,,,,,,,,,,,,,,
,,,,,,,,,,,,a,Incorrect,,,,,,t5.png,t3.png,2,0.0565,20 ,Male,2020-11-02_14h31.26.748,torte-q,2020.1.3,Win32,60,1.404065,,,,,0,109,109,39,1,,,,,,,,,,,,,,,,,,,,,,,,,,,,,,,,,,,
,,,,,,,,,,,,l,Incorrect,,,,,,t1.png,t1.png,0,0.978,20 ,Male,2020-11-02_14h31.26.748,torte-q,2020.1.3,Win32,60,1.619195,,,,,0,110,110,54,1,,,,,,,,,,,,,,,,,,,,,,,,,,,,,,,,,,,
,,,,,,,,,,,,a,Incorrect,,,,,,t1.png,t3.png,2,0.056466,20 ,Male,2020-11-02_14h31.26.748,torte-q,2020.1.3,Win32,60,1.43068,,,,,0,111,111,99,1,,,,,,,,,,,,,,,,,,,,,,,,,,,,,,,,,,,
,,,,,,,,,,,,a,Correct!,,,,,,t4.png,t5.png,1,0.90025,20 ,Male,2020-11-02_14h31.26.748,torte-q,2020.1.3,Win32,60,1.01795,,,,,0,112,112,58,1,,,,,,,,,,,,,,,,,,,,,,,,,,,,,,,,,,,
,,,,,,,,,,,,a,Incorrect,,,,,,t5.png,t3.png,2,0.056466,20 ,Male,2020-11-02_14h31.26.748,torte-q,2020.1.3,Win32,60,0.913775,,,,,0,113,113,56,1,,,,,,,,,,,,,,,,,,,,,,,,,,,,,,,,,,,
,,,,,,,,,,,,a,Incorrect,,,,,,t5.png,t2.png,3,0.0000131,20 ,Male,2020-11-02_14h31.26.748,torte-q,2020.1.3,Win32,60,0.798185,,,,,0,114,114,51,1,,,,,,,,,,,,,,,,,,,,,,,,,,,,,,,,,,,
,,,,,,,,,,,,,Too slow :(,,,,,,t4.png,t1.png,3,0.0000131,20 ,Male,2020-11-02_14h31.26.748,torte-q,2020.1.3,Win32,60,,,,,,0,115,115,93,1,,,,,,,,,,,,,,,,,,,,,,,,,,,,,,,,,,,
,,,,,,,,,,,,l,Correct!,,,,,,t1.png,t4.png,3,0.0000131,20 ,Male,2020-11-02_14h31.26.748,torte-q,2020.1.3,Win32,60,1.554785,,,,,0,116,116,50,1,,,,,,,,,,,,,,,,,,,,,,,,,,,,,,,,,,,
,,,,,,,,,,,,l,Correct!,,,,,,t1.png,t5.png,4,9.55E-11,20 ,Male,2020-11-02_14h31.26.748,torte-q,2020.1.3,Win32,60,1.45757,,,,,0,117,117,85,1,,,,,,,,,,,,,,,,,,,,,,,,,,,,,,,,,,,
,,,,,,,,,,,,a,Correct!,,,,,,t2.png,t2.png,0,0.98115,20 ,Male,2020-11-02_14h31.26.748,torte-q,2020.1.3,Win32,60,1.639375,,,,,0,118,118,57,1,,,,,,,,,,,,,,,,,,,,,,,,,,,,,,,,,,,
,,,,,,,,,,,,a,Correct!,,,,,,t2.png,t1.png,1,0.90025,20 ,Male,2020-11-02_14h31.26.748,torte-q,2020.1.3,Win32,60,1.846675,,,,,0,119,119,62,1,,,,,,,,,,,,,,,,,,,,,,,,,,,,,,,,,,,
,,,,,,,,,,,,l,Correct!,,,,,,t3.png,t1.png,2,0.056466,20 ,Male,2020-11-02_14h31.26.748,torte-q,2020.1.3,Win32,60,1.6667,space,185.22217,,,,,,,,space,52.69928,space,3.299695,0,0,0,0,1,,,,,,,,,,,,,,,,,,,,,,,,,,
,,,,,,,,,,,,a,Incorrect,,,,,,t5.png,t2.png,3,0.0000131,20 ,Male,2020-11-02_14h31.26.748,torte-q,2020.1.3,Win32,60,2.44453,,,,,,,,,,,,,,0,1,1,119,1,,,,,,,,,,,,,,,,,,,,,,,,,,
,,,,,,,,,,,,a,Incorrect,,,,,,t4.png,t3.png,1,0.909,20 ,Male,2020-11-02_14h31.26.748,torte-q,2020.1.3,Win32,60,1.963745,,,,,,,,,,,,,,0,2,2,20,1,,,,,,,,,,,,,,,,,,,,,,,,,,
,,,,,,,,,,,,a,Incorrect,,,,,,t1.png,t5.png,4,9.55E-11,20 ,Male,2020-11-02_14h31.26.748,torte-q,2020.1.3,Win32,60,1.956435,,,,,,,,,,,,,,0,3,3,85,1,,,,,,,,,,,,,,,,,,,,,,,,,,
,,,,,,,,,,,,l,Correct!,,,,,,t2.png,t4.png,2,0.059078,20 ,Male,2020-11-02_14h31.26.748,torte-q,2020.1.3,Win32,60,1.146745,,,,,,,,,,,,,,0,4,4,11,1,,,,,,,,,,,,,,,,,,,,,,,,,,
,,,,,,,,,,,,a,Incorrect,,,,,,t1.png,t3.png,2,0.056466,20 ,Male,2020-11-02_14h31.26.748,torte-q,2020.1.3,Win32,60,1.33513,,,,,,,,,,,,,,0,5,5,60,1,,,,,,,,,,,,,,,,,,,,,,,,,,
,,,,,,,,,,,,a,Correct!,,,,,,t3.png,t4.png,1,0.909,20 ,Male,2020-11-02_14h31.26.748,torte-q,2020.1.3,Win32,60,0.96984,,,,,,,,,,,,,,0,6,6,89,1,,,,,,,,,,,,,,,,,,,,,,,,,,
,,,,,,,,,,,,a,Correct!,,,,,,t2.png,t2.png,0,0.98115,20 ,Male,2020-11-02_14h31.26.748,torte-q,2020.1.3,Win32,60,1.13642,,,,,,,,,,,,,,0,7,7,7,1,,,,,,,,,,,,,,,,,,,,,,,,,,
,,,,,,,,,,,,a,Incorrect,,,,,,t5.png,t1.png,4,9.55E-11,20 ,Male,2020-11-02_14h31.26.748,torte-q,2020.1.3,Win32,60,0.975575,,,,,,,,,,,,,,0,8,8,100,1,,,,,,,,,,,,,,,,,,,,,,,,,,
,,,,,,,,,,,,a,Correct!,,,,,,t1.png,t1.png,0,0.97829,20 ,Male,2020-11-02_14h31.26.748,torte-q,2020.1.3,Win32,60,0.892025,,,,,,,,,,,,,,0,9,9,9,1,,,,,,,,,,,,,,,,,,,,,,,,,,
,,,,,,,,,,,,a,Incorrect,,,,,,t4.png,t1.png,3,0.0000131,20 ,Male,2020-11-02_14h31.26.748,torte-q,2020.1.3,Win32,60,1.05005,,,,,,,,,,,,,,0,10,10,61,1,,,,,,,,,,,,,,,,,,,,,,,,,,
,,,,,,,,,,,,l,Incorrect,,,,,,t1.png,t2.png,1,0.90025,20 ,Male,2020-11-02_14h31.26.748,torte-q,2020.1.3,Win32,60,1.489935,,,,,,,,,,,,,,0,11,11,112,1,,,,,,,,,,,,,,,,,,,,,,,,,,
,,,,,,,,,,,,a,Correct!,,,,,,t3.png,t4.png,1,0.909,20 ,Male,2020-11-02_14h31.26.748,torte-q,2020.1.3,Win32,60,0.913285,,,,,,,,,,,,,,0,12,12,106,1,,,,,,,,,,,,,,,,,,,,,,,,,,
,,,,,,,,,,,,l,Incorrect,,,,,,t2.png,t2.png,0,0.98115,20 ,Male,2020-11-02_14h31.26.748,torte-q,2020.1.3,Win32,60,1.482935,,,,,,,,,,,,,,0,13,13,57,1,,,,,,,,,,,,,,,,,,,,,,,,,,
,,,,,,,,,,,,l,Correct!,,,,,,t1.png,t5.png,4,9.55E-11,20 ,Male,2020-11-02_14h31.26.748,torte-q,2020.1.3,Win32,60,1.547265,,,,,,,,,,,,,,0,14,14,16,1,,,,,,,,,,,,,,,,,,,,,,,,,,
,,,,,,,,,,,,a,Correct!,,,,,,t5.png,t3.png,2,0.0565,20 ,Male,2020-11-02_14h31.26.748,torte-q,2020.1.3,Win32,60,0.58581,,,,,,,,,,,,,,0,15,15,39,1,,,,,,,,,,,,,,,,,,,,,,,,,,
,,,,,,,,,,,,l,Correct!,,,,,,t1.png,t4.png,3,0.0000131,20 ,Male,2020-11-02_14h31.26.748,torte-q,2020.1.3,Win32,60,0.81062,,,,,,,,,,,,,,0,16,16,92,1,,,,,,,,,,,,,,,,,,,,,,,,,,
,,,,,,,,,,,,a,Correct!,,,,,,t2.png,t2.png,0,0.98115,20 ,Male,2020-11-02_14h31.26.748,torte-q,2020.1.3,Win32,60,0.59229,,,,,,,,,,,,,,0,17,17,2,1,,,,,,,,,,,,,,,,,,,,,,,,,,
,,,,,,,,,,,,l,Correct!,,,,,,t1.png,t4.png,3,0.0000131,20 ,Male,2020-11-02_14h31.26.748,torte-q,2020.1.3,Win32,60,0.67107,,,,,,,,,,,,,,0,18,18,50,1,,,,,,,,,,,,,,,,,,,,,,,,,,
,,,,,,,,,,,,a,Correct!,,,,,,t4.png,t4.png,0,0.98115,20 ,Male,2020-11-02_14h31.26.748,torte-q,2020.1.3,Win32,60,0.657655,,,,,,,,,,,,,,0,19,19,90,1,,,,,,,,,,,,,,,,,,,,,,,,,,
,,,,,,,,,,,,a,Correct!,,,,,,t2.png,t1.png,1,0.90025,20 ,Male,2020-11-02_14h31.26.748,torte-q,2020.1.3,Win32,60,0.706295,,,,,,,,,,,,,,0,20,20,62,1,,,,,,,,,,,,,,,,,,,,,,,,,,
,,,,,,,,,,,,a,Correct!,,,,,,t5.png,t4.png,1,0.90025,20 ,Male,2020-11-02_14h31.26.748,torte-q,2020.1.3,Win32,60,0.72782,,,,,,,,,,,,,,0,21,21,27,1,,,,,,,,,,,,,,,,,,,,,,,,,,
,,,,,,,,,,,,a,Correct!,,,,,,t5.png,t5.png,0,0.978,20 ,Male,2020-11-02_14h31.26.748,torte-q,2020.1.3,Win32,60,0.796355,,,,,,,,,,,,,,0,22,22,117,1,,,,,,,,,,,,,,,,,,,,,,,,,,
,,,,,,,,,,,,a,Incorrect,,,,,,t4.png,t2.png,2,0.059078,20 ,Male,2020-11-02_14h31.26.748,torte-q,2020.1.3,Win32,60,0.495265,,,,,,,,,,,,,,0,23,23,110,1,,,,,,,,,,,,,,,,,,,,,,,,,,
,,,,,,,,,,,,a,Correct!,,,,,,t5.png,t4.png,1,0.90025,20 ,Male,2020-11-02_14h31.26.748,torte-q,2020.1.3,Win32,60,0.6123,,,,,,,,,,,,,,0,24,24,34,1,,,,,,,,,,,,,,,,,,,,,,,,,,
,,,,,,,,,,,,a,Incorrect,,,,,,t4.png,t2.png,2,0.059078,20 ,Male,2020-11-02_14h31.26.748,torte-q,2020.1.3,Win32,60,0.943905,,,,,,,,,,,,,,0,25,25,86,1,,,,,,,,,,,,,,,,,,,,,,,,,,
,,,,,,,,,,,,a,Incorrect,,,,,,t5.png,t2.png,3,0.0000131,20 ,Male,2020-11-02_14h31.26.748,torte-q,2020.1.3,Win32,60,0.603255,,,,,,,,,,,,,,0,26,26,91,1,,,,,,,,,,,,,,,,,,,,,,,,,,
,,,,,,,,,,,,a,Correct!,,,,,,t1.png,t1.png,0,0.978,20 ,Male,2020-11-02_14h31.26.748,torte-q,2020.1.3,Win32,60,0.828295,,,,,,,,,,,,,,0,27,27,28,1,,,,,,,,,,,,,,,,,,,,,,,,,,
,,,,,,,,,,,,l,Incorrect,,,,,,t1.png,t2.png,1,0.90025,20 ,Male,2020-11-02_14h31.26.748,torte-q,2020.1.3,Win32,60,0.879395,,,,,,,,,,,,,,0,28,28,33,1,,,,,,,,,,,,,,,,,,,,,,,,,,
,,,,,,,,,,,,a,Incorrect,,,,,,t3.png,t4.png,1,0.90855,20 ,Male,2020-11-02_14h31.26.748,torte-q,2020.1.3,Win32,60,1.047755,,,,,,,,,,,,,,0,29,29,96,1,,,,,,,,,,,,,,,,,,,,,,,,,,
,,,,,,,,,,,,a,Correct!,,,,,,t2.png,t3.png,1,0.90855,20 ,Male,2020-11-02_14h31.26.748,torte-q,2020.1.3,Win32,60,1.34585,,,,,,,,,,,,,,0,30,30,10,1,,,,,,,,,,,,,,,,,,,,,,,,,,
,,,,,,,,,,,,a,Correct!,,,,,,t1.png,t2.png,1,0.90025,20 ,Male,2020-11-02_14h31.26.748,torte-q,2020.1.3,Win32,60,1.417135,,,,,,,,,,,,,,0,31,31,105,1,,,,,,,,,,,,,,,,,,,,,,,,,,
,,,,,,,,,,,,a,Incorrect,,,,,,t3.png,t1.png,2,0.0565,20 ,Male,2020-11-02_14h31.26.748,torte-q,2020.1.3,Win32,60,0.642555,,,,,,,,,,,,,,0,32,32,31,1,,,,,,,,,,,,,,,,,,,,,,,,,,
,,,,,,,,,,,,a,Correct!,,,,,,t4.png,t5.png,1,0.90025,20 ,Male,2020-11-02_14h31.26.748,torte-q,2020.1.3,Win32,60,1.29722,,,,,,,,,,,,,,0,33,33,103,1,,,,,,,,,,,,,,,,,,,,,,,,,,
,,,,,,,,,,,,a,Incorrect,,,,,,t5.png,t1.png,4,9.55E-11,20 ,Male,2020-11-02_14h31.26.748,torte-q,2020.1.3,Win32,60,1.03763,,,,,,,,,,,,,,0,34,34,43,1,,,,,,,,,,,,,,,,,,,,,,,,,,
,,,,,,,,,,,,l,Incorrect,,,,,,t4.png,t4.png,0,0.98115,20 ,Male,2020-11-02_14h31.26.748,torte-q,2020.1.3,Win32,60,0.77248,,,,,,,,,,,,,,0,35,35,52,1,,,,,,,,,,,,,,,,,,,,,,,,,,
,,,,,,,,,,,,l,Incorrect,,,,,,t1.png,t3.png,2,0.056466,20 ,Male,2020-11-02_14h31.26.748,torte-q,2020.1.3,Win32,60,1.722765,,,,,,,,,,,,,,0,36,36,63,1,,,,,,,,,,,,,,,,,,,,,,,,,,
,,,,,,,,,,,,l,Incorrect,,,,,,t2.png,t2.png,0,0.98115,20 ,Male,2020-11-02_14h31.26.748,torte-q,2020.1.3,Win32,60,1.304815,,,,,,,,,,,,,,0,37,37,59,1,,,,,,,,,,,,,,,,,,,,,,,,,,
,,,,,,,,,,,,l,Correct!,,,,,,t2.png,t4.png,2,0.0591,20 ,Male,2020-11-02_14h31.26.748,torte-q,2020.1.3,Win32,60,0.879625,,,,,,,,,,,,,,0,38,38,15,1,,,,,,,,,,,,,,,,,,,,,,,,,,
,,,,,,,,,,,,a,Correct!,,,,,,t4.png,t5.png,1,0.90025,20 ,Male,2020-11-02_14h31.26.748,torte-q,2020.1.3,Win32,60,1.09794,,,,,,,,,,,,,,0,39,39,113,1,,,,,,,,,,,,,,,,,,,,,,,,,,
,,,,,,,,,,,,a,Correct!,,,,,,t3.png,t2.png,1,0.90855,20 ,Male,2020-11-02_14h31.26.748,torte-q,2020.1.3,Win32,60,0.86804,,,,,,,,,,,,,,0,40,40,18,1,,,,,,,,,,,,,,,,,,,,,,,,,,
,,,,,,,,,,,,a,Correct!,,,,,,t1.png,t2.png,1,0.90025,20 ,Male,2020-11-02_14h31.26.748,torte-q,2020.1.3,Win32,60,2.15183,,,,,,,,,,,,,,0,41,41,72,1,,,,,,,,,,,,,,,,,,,,,,,,,,
,,,,,,,,,,,,a,Correct!,,,,,,t2.png,t1.png,1,0.90025,20 ,Male,2020-11-02_14h31.26.748,torte-q,2020.1.3,Win32,60,1.166215,,,,,,,,,,,,,,0,42,42,4,1,,,,,,,,,,,,,,,,,,,,,,,,,,
,,,,,,,,,,,,a,Incorrect,,,,,,t5.png,t2.png,3,0.0000131,20 ,Male,2020-11-02_14h31.26.748,torte-q,2020.1.3,Win32,60,1.647145,,,,,,,,,,,,,,0,43,43,116,1,,,,,,,,,,,,,,,,,,,,,,,,,,
,,,,,,,,,,,,a,Incorrect,,,,,,t5.png,t2.png,3,0.0000131,20 ,Male,2020-11-02_14h31.26.748,torte-q,2020.1.3,Win32,60,1.8302,,,,,,,,,,,,,,0,44,44,98,1,,,,,,,,,,,,,,,,,,,,,,,,,,
,,,,,,,,,,,,a,Incorrect,,,,,,t3.png,t5.png,2,0.056466,20 ,Male,2020-11-02_14h31.26.748,torte-q,2020.1.3,Win32,60,0.872445,,,,,,,,,,,,,,0,45,45,44,1,,,,,,,,,,,,,,,,,,,,,,,,,,
,,,,,,,,,,,,a,Correct!,,,,,,t3.png,t2.png,1,0.90855,20 ,Male,2020-11-02_14h31.26.748,torte-q,2020.1.3,Win32,60,0.757545,,,,,,,,,,,,,,0,46,46,53,1,,,,,,,,,,,,,,,,,,,,,,,,,,
,,,,,,,,,,,,l,Correct!,,,,,,t5.png,t3.png,2,0.056466,20 ,Male,2020-11-02_14h31.26.748,torte-q,2020.1.3,Win32,60,1.2382,,,,,,,,,,,,,,0,47,47,56,1,,,,,,,,,,,,,,,,,,,,,,,,,,
,,,,,,,,,,,,l,Correct!,,,,,,t2.png,t4.png,2,0.059078,20 ,Male,2020-11-02_14h31.26.748,torte-q,2020.1.3,Win32,60,0.657225,,,,,,,,,,,,,,0,48,48,77,1,,,,,,,,,,,,,,,,,,,,,,,,,,
,,,,,,,,,,,,a,Correct!,,,,,,t3.png,t2.png,1,0.909,20 ,Male,2020-11-02_14h31.26.748,torte-q,2020.1.3,Win32,60,0.8906,,,,,,,,,,,,,,0,49,49,3,1,,,,,,,,,,,,,,,,,,,,,,,,,,
,,,,,,,,,,,,l,Incorrect,,,,,,t4.png,t5.png,1,0.90025,20 ,Male,2020-11-02_14h31.26.748,torte-q,2020.1.3,Win32,60,1.285525,,,,,,,,,,,,,,0,50,50,58,1,,,,,,,,,,,,,,,,,,,,,,,,,,
,,,,,,,,,,,,l,Incorrect,,,,,,t1.png,t1.png,0,0.978,20 ,Male,2020-11-02_14h31.26.748,torte-q,2020.1.3,Win32,60,0.621465,,,,,,,,,,,,,,0,51,51,54,1,,,,,,,,,,,,,,,,,,,,,,,,,,
,,,,,,,,,,,,a,Incorrect,,,,,,t5.png,t2.png,3,0.0000131,20 ,Male,2020-11-02_14h31.26.748,torte-q,2020.1.3,Win32,60,0.63764,,,,,,,,,,,,,,0,52,52,51,1,,,,,,,,,,,,,,,,,,,,,,,,,,
,,,,,,,,,,,,l,Correct!,,,,,,t2.png,t4.png,2,0.059078,20 ,Male,2020-11-02_14h31.26.748,torte-q,2020.1.3,Win32,60,0.597835,,,,,,,,,,,,,,0,53,53,37,1,,,,,,,,,,,,,,,,,,,,,,,,,,
,,,,,,,,,,,,l,Correct!,,,,,,t1.png,t5.png,4,9.55E-11,20 ,Male,2020-11-02_14h31.26.748,torte-q,2020.1.3,Win32,60,0.6151,,,,,,,,,,,,,,0,54,54,41,1,,,,,,,,,,,,,,,,,,,,,,,,,,
,,,,,,,,,,,,l,Correct!,,,,,,t3.png,t5.png,2,0.0565,20 ,Male,2020-11-02_14h31.26.748,torte-q,2020.1.3,Win32,60,0.85576,,,,,,,,,,,,,,0,55,55,83,1,,,,,,,,,,,,,,,,,,,,,,,,,,
,,,,,,,,,,,,a,Incorrect,,,,,,t3.png,t4.png,1,0.909,20 ,Male,2020-11-02_14h31.26.748,torte-q,2020.1.3,Win32,60,0.46393,,,,,,,,,,,,,,0,56,56,82,1,,,,,,,,,,,,,,,,,,,,,,,,,,
,,,,,,,,,,,,l,Correct!,,,,,,t1.png,t4.png,3,0.0000131,20 ,Male,2020-11-02_14h31.26.748,torte-q,2020.1.3,Win32,60,0.950595,,,,,,,,,,,,,,0,57,57,107,1,,,,,,,,,,,,,,,,,,,,,,,,,,
,,,,,,,,,,,,a,Correct!,,,,,,t5.png,t5.png,0,0.97829,20 ,Male,2020-11-02_14h31.26.748,torte-q,2020.1.3,Win32,60,1.236215,,,,,,,,,,,,,,0,58,58,70,1,,,,,,,,,,,,,,,,,,,,,,,,,,
,,,,,,,,,,,,l,Incorrect,,,,,,t4.png,t5.png,1,0.90025,20 ,Male,2020-11-02_14h31.26.748,torte-q,2020.1.3,Win32,60,1.320045,,,,,,,,,,,,,,0,59,59,47,1,,,,,,,,,,,,,,,,,,,,,,,,,,
,,,,,,,,,,,,a,Correct!,,,,,,t3.png,t4.png,1,0.90855,20 ,Male,2020-11-02_14h31.26.748,torte-q,2020.1.3,Win32,60,0.65711,,,,,,,,,,,,,,0,60,60,84,1,,,,,,,,,,,,,,,,,,,,,,,,,,
,,,,,,,,,,,,a,Correct!,,,,,,t3.png,t2.png,1,0.909,20 ,Male,2020-11-02_14h31.26.748,torte-q,2020.1.3,Win32,60,0.531255,,,,,,,,,,,,,,0,61,61,23,1,,,,,,,,,,,,,,,,,,,,,,,,,,
,,,,,,,,,,,,l,Correct!,,,,,,t1.png,t5.png,4,9.55E-11,20 ,Male,2020-11-02_14h31.26.748,torte-q,2020.1.3,Win32,60,0.972665,,,,,,,,,,,,,,0,62,62,12,1,,,,,,,,,,,,,,,,,,,,,,,,,,
,,,,,,,,,,,,a,Correct!,,,,,,t4.png,t3.png,1,0.90855,20 ,Male,2020-11-02_14h31.26.748,torte-q,2020.1.3,Win32,60,1.029885,,,,,,,,,,,,,,0,63,63,75,1,,,,,,,,,,,,,,,,,,,,,,,,,,
,,,,,,,,,,,,a,Correct!,,,,,,t2.png,t2.png,0,0.981,20 ,Male,2020-11-02_14h31.26.748,torte-q,2020.1.3,Win32,60,1.268595,,,,,,,,,,,,,,0,64,64,101,1,,,,,,,,,,,,,,,,,,,,,,,,,,
,,,,,,,,,,,,a,Correct!,,,,,,t4.png,t3.png,1,0.909,20 ,Male,2020-11-02_14h31.26.748,torte-q,2020.1.3,Win32,60,1.006925,,,,,,,,,,,,,,0,65,65,46,1,,,,,,,,,,,,,,,,,,,,,,,,,,
,,,,,,,,,,,,a,Incorrect,,,,,,t5.png,t3.png,2,0.056466,20 ,Male,2020-11-02_14h31.26.748,torte-q,2020.1.3,Win32,60,1.00197,,,,,,,,,,,,,,0,66,66,108,1,,,,,,,,,,,,,,,,,,,,,,,,,,
,,,,,,,,,,,,l,Correct!,,,,,,t1.png,t4.png,3,0.0000131,20 ,Male,2020-11-02_14h31.26.748,torte-q,2020.1.3,Win32,60,0.75286,,,,,,,,,,,,,,0,67,67,81,1,,,,,,,,,,,,,,,,,,,,,,,,,,
,,,,,,,,,,,,l,Correct!,,,,,,t2.png,t5.png,3,0.0000131,20 ,Male,2020-11-02_14h31.26.748,torte-q,2020.1.3,Win32,60,0.914465,,,,,,,,,,,,,,0,68,68,66,1,,,,,,,,,,,,,,,,,,,,,,,,,,
,,,,,,,,,,,,a,Incorrect,,,,,,t4.png,t1.png,3,0.0000131,20 ,Male,2020-11-02_14h31.26.748,torte-q,2020.1.3,Win32,60,0.67992,,,,,,,,,,,,,,0,69,69,93,1,,,,,,,,,,,,,,,,,,,,,,,,,,
,,,,,,,,,,,,a,Incorrect,,,,,,t4.png,t2.png,2,0.0591,20 ,Male,2020-11-02_14h31.26.748,torte-q,2020.1.3,Win32,60,0.962245,,,,,,,,,,,,,,0,70,70,36,1,,,,,,,,,,,,,,,,,,,,,,,,,,
,,,,,,,,,,,,a,Incorrect,,,,,,t1.png,t3.png,2,0.056466,20 ,Male,2020-11-02_14h31.26.748,torte-q,2020.1.3,Win32,60,0.904375,,,,,,,,,,,,,,0,71,71,99,1,,,,,,,,,,,,,,,,,,,,,,,,,,
,,,,,,,,,,,,a,Incorrect,,,,,,t3.png,t5.png,2,0.056466,20 ,Male,2020-11-02_14h31.26.748,torte-q,2020.1.3,Win32,60,0.773215,,,,,,,,,,,,,,0,72,72,6,1,,,,,,,,,,,,,,,,,,,,,,,,,,
,,,,,,,,,,,,a,Incorrect,,,,,,t3.png,t1.png,2,0.056466,20 ,Male,2020-11-02_14h31.26.748,torte-q,2020.1.3,Win32,60,0.864605,,,,,,,,,,,,,,0,73,73,64,1,,,,,,,,,,,,,,,,,,,,,,,,,,
,,,,,,,,,,,,l,Incorrect,,,,,,t2.png,t1.png,1,0.9,20 ,Male,2020-11-02_14h31.26.748,torte-q,2020.1.3,Win32,60,0.98616,,,,,,,,,,,,,,0,74,74,118,1,,,,,,,,,,,,,,,,,,,,,,,,,,
,,,,,,,,,,,,a,Correct!,,,,,,t4.png,t3.png,1,0.90855,20 ,Male,2020-11-02_14h31.26.748,torte-q,2020.1.3,Win32,60,1.36422,,,,,,,,,,,,,,0,75,75,35,1,,,,,,,,,,,,,,,,,,,,,,,,,,
,,,,,,,,,,,,l,Correct!,,,,,,t2.png,t5.png,3,0.0000131,20 ,Male,2020-11-02_14h31.26.748,torte-q,2020.1.3,Win32,60,0.59475,,,,,,,,,,,,,,0,76,76,8,1,,,,,,,,,,,,,,,,,,,,,,,,,,
,,,,,,,,,,,,l,Correct!,,,,,,t2.png,t5.png,3,0.0000131,20 ,Male,2020-11-02_14h31.26.748,torte-q,2020.1.3,Win32,60,0.912485,,,,,,,,,,,,,,0,77,77,95,1,,,,,,,,,,,,,,,,,,,,,,,,,,
,,,,,,,,,,,,a,Correct!,,,,,,t2.png,t3.png,1,0.90855,20 ,Male,2020-11-02_14h31.26.748,torte-q,2020.1.3,Win32,60,1.4909,,,,,,,,,,,,,,0,78,78,68,1,,,,,,,,,,,,,,,,,,,,,,,,,,
,,,,,,,,,,,,l,Incorrect,,,,,,t2.png,t1.png,1,0.90025,20 ,Male,2020-11-02_14h31.26.748,torte-q,2020.1.3,Win32,60,1.70838,,,,,,,,,,,,,,0,79,79,19,1,,,,,,,,,,,,,,,,,,,,,,,,,,
,,,,,,,,,,,,a,Incorrect,,,,,,t3.png,t1.png,2,0.056466,20 ,Male,2020-11-02_14h31.26.748,torte-q,2020.1.3,Win32,60,0.81053,,,,,,,,,,,,,,0,80,80,29,1,,,,,,,,,,,,,,,,,,,,,,,,,,
,,,,,,,,,,,,l,Correct!,,,,,,t1.png,t2.png,1,0.9,20 ,Male,2020-11-02_14h31.26.748,torte-q,2020.1.3,Win32,60,1.02723,,,,,,,,,,,,,,0,81,81,1,1,,,,,,,,,,,,,,,,,,,,,,,,,,
,,,,,,,,,,,,a,Incorrect,,,,,,t5.png,t3.png,2,0.056466,20 ,Male,2020-11-02_14h31.26.748,torte-q,2020.1.3,Win32,60,0.5571,,,,,,,,,,,,,,0,82,82,38,1,,,,,,,,,,,,,,,,,,,,,,,,,,
,,,,,,,,,,,,a,Correct!,,,,,,t5.png,t4.png,1,0.9,20 ,Male,2020-11-02_14h31.26.748,torte-q,2020.1.3,Win32,60,1.15391,,,,,,,,,,,,,,0,83,83,49,1,,,,,,,,,,,,,,,,,,,,,,,,,,
,,,,,,,,,,,,a,Incorrect,,,,,,t3.png,t5.png,2,0.0565,20 ,Male,2020-11-02_14h31.26.748,torte-q,2020.1.3,Win32,60,0.830535,,,,,,,,,,,,,,0,84,84,30,1,,,,,,,,,,,,,,,,,,,,,,,,,,
,,,,,,,,,,,,a,Correct!,,,,,,t2.png,t3.png,1,0.90855,20 ,Male,2020-11-02_14h31.26.748,torte-q,2020.1.3,Win32,60,1.827405,,,,,,,,,,,,,,0,85,85,111,1,,,,,,,,,,,,,,,,,,,,,,,,,,
,,,,,,,,,,,,l,Correct!,,,,,,t1.png,t3.png,2,0.056466,20 ,Male,2020-11-02_14h31.26.748,torte-q,2020.1.3,Win32,60,1.618415,,,,,,,,,,,,,,0,86,86,87,1,,,,,,,,,,,,,,,,,,,,,,,,,,
,,,,,,,,,,,,l,Correct!,,,,,,t1.png,t3.png,2,0.056466,20 ,Male,2020-11-02_14h31.26.748,torte-q,2020.1.3,Win32,60,1.147165,,,,,,,,,,,,,,0,87,87,69,1,,,,,,,,,,,,,,,,,,,,,,,,,,
,,,,,,,,,,,,a,Correct!,,,,,,t4.png,t5.png,1,0.9,20 ,Male,2020-11-02_14h31.26.748,torte-q,2020.1.3,Win32,60,1.20166,,,,,,,,,,,,,,0,88,88,115,1,,,,,,,,,,,,,,,,,,,,,,,,,,
,,,,,,,,,,,,,Too slow :(,,,,,,t5.png,t4.png,1,0.90025,20 ,Male,2020-11-02_14h31.26.748,torte-q,2020.1.3,Win32,60,,,,,,,,,,,,,,,0,89,89,26,1,,,,,,,,,,,,,,,,,,,,,,,,,,
,,,,,,,,,,,,a,Incorrect,,,,,,t4.png,t2.png,2,0.059078,20 ,Male,2020-11-02_14h31.26.748,torte-q,2020.1.3,Win32,60,0.909145,,,,,,,,,,,,,,0,90,90,109,1,,,,,,,,,,,,,,,,,,,,,,,,,,
,,,,,,,,,,,,a,Correct!,,,,,,t5.png,t5.png,0,0.97829,20 ,Male,2020-11-02_14h31.26.748,torte-q,2020.1.3,Win32,60,0.784065,,,,,,,,,,,,,,0,91,91,73,1,,,,,,,,,,,,,,,,,,,,,,,,,,
,,,,,,,,,,,,a,Incorrect,,,,,,t4.png,t1.png,3,0.0000131,20 ,Male,2020-11-02_14h31.26.748,torte-q,2020.1.3,Win32,60,1.16871,,,,,,,,,,,,,,0,92,92,48,1,,,,,,,,,,,,,,,,,,,,,,,,,,
,,,,,,,,,,,,l,Correct!,,,,,,t2.png,t5.png,3,0.0000131,20 ,Male,2020-11-02_14h31.26.748,torte-q,2020.1.3,Win32,60,0.818685,,,,,,,,,,,,,,0,93,93,104,1,,,,,,,,,,,,,,,,,,,,,,,,,,
,,,,,,,,,,,,l,Incorrect,,,,,,t2.png,t3.png,1,0.909,20 ,Male,2020-11-02_14h31.26.748,torte-q,2020.1.3,Win32,60,1.12055,,,,,,,,,,,,,,0,94,94,74,1,,,,,,,,,,,,,,,,,,,,,,,,,,
,,,,,,,,,,,,a,Incorrect,,,,,,t5.png,t1.png,4,9.55E-11,20 ,Male,2020-11-02_14h31.26.748,torte-q,2020.1.3,Win32,60,0.763855,,,,,,,,,,,,,,0,95,95,22,1,,,,,,,,,,,,,,,,,,,,,,,,,,
,,,,,,,,,,,,a,Incorrect,,,,,,t4.png,t1.png,3,0.0000131,20 ,Male,2020-11-02_14h31.26.748,torte-q,2020.1.3,Win32,60,1.133045,,,,,,,,,,,,,,0,96,96,13,1,,,,,,,,,,,,,,,,,,,,,,,,,,
,,,,,,,,,,,,a,Incorrect,,,,,,t4.png,t1.png,3,0.0000131,20 ,Male,2020-11-02_14h31.26.748,torte-q,2020.1.3,Win32,60,0.683145,,,,,,,,,,,,,,0,97,97,42,1,,,,,,,,,,,,,,,,,,,,,,,,,,
,,,,,,,,,,,,a,Incorrect,,,,,,t5.png,t1.png,4,9.55E-11,20 ,Male,2020-11-02_14h31.26.748,torte-q,2020.1.3,Win32,60,0.777775,,,,,,,,,,,,,,0,98,98,102,1,,,,,,,,,,,,,,,,,,,,,,,,,,
,,,,,,,,,,,,l,Incorrect,,,,,,t4.png,t4.png,0,0.98115,20 ,Male,2020-11-02_14h31.26.748,torte-q,2020.1.3,Win32,60,1.04419,,,,,,,,,,,,,,0,99,99,79,1,,,,,,,,,,,,,,,,,,,,,,,,,,
,,,,,,,,,,,,a,Incorrect,,,,,,t4.png,t2.png,2,0.059078,20 ,Male,2020-11-02_14h31.26.748,torte-q,2020.1.3,Win32,60,0.576995,,,,,,,,,,,,,,0,100,100,88,1,,,,,,,,,,,,,,,,,,,,,,,,,,
,,,,,,,,,,,,a,Incorrect,,,,,,t5.png,t1.png,4,9.55E-11,20 ,Male,2020-11-02_14h31.26.748,torte-q,2020.1.3,Win32,60,0.69822,,,,,,,,,,,,,,0,101,101,71,1,,,,,,,,,,,,,,,,,,,,,,,,,,
,,,,,,,,,,,,l,Correct!,,,,,,t1.png,t5.png,4,9.55E-11,20 ,Male,2020-11-02_14h31.26.748,torte-q,2020.1.3,Win32,60,1.016795,,,,,,,,,,,,,,0,102,102,55,1,,,,,,,,,,,,,,,,,,,,,,,,,,
,,,,,,,,,,,,a,Correct!,,,,,,t5.png,t5.png,0,0.97829,20 ,Male,2020-11-02_14h31.26.748,torte-q,2020.1.3,Win32,60,0.844405,,,,,,,,,,,,,,0,103,103,25,1,,,,,,,,,,,,,,,,,,,,,,,,,,
,,,,,,,,,,,,l,Incorrect,,,,,,t4.png,t4.png,0,0.98115,20 ,Male,2020-11-02_14h31.26.748,torte-q,2020.1.3,Win32,60,1.481955,,,,,,,,,,,,,,0,104,104,80,1,,,,,,,,,,,,,,,,,,,,,,,,,,
,,,,,,,,,,,,a,Correct!,,,,,,t5.png,t5.png,0,0.97829,20 ,Male,2020-11-02_14h31.26.748,torte-q,2020.1.3,Win32,60,0.531365,,,,,,,,,,,,,,0,105,105,94,1,,,,,,,,,,,,,,,,,,,,,,,,,,
,,,,,,,,,,,,a,Correct!,,,,,,t5.png,t4.png,1,0.9,20 ,Male,2020-11-02_14h31.26.748,torte-q,2020.1.3,Win32,60,0.56926,,,,,,,,,,,,,,0,106,106,76,1,,,,,,,,,,,,,,,,,,,,,,,,,,
,,,,,,,,,,,,l,Incorrect,,,,,,t1.png,t1.png,0,0.97829,20 ,Male,2020-11-02_14h31.26.748,torte-q,2020.1.3,Win32,60,0.851525,,,,,,,,,,,,,,0,107,107,78,1,,,,,,,,,,,,,,,,,,,,,,,,,,
,,,,,,,,,,,,a,Incorrect,,,,,,t3.png,t1.png,2,0.056466,20 ,Male,2020-11-02_14h31.26.748,torte-q,2020.1.3,Win32,60,0.741795,,,,,,,,,,,,,,0,108,108,32,1,,,,,,,,,,,,,,,,,,,,,,,,,,
,,,,,,,,,,,,l,Incorrect,,,,,,t1.png,t1.png,0,0.97829,20 ,Male,2020-11-02_14h31.26.748,torte-q,2020.1.3,Win32,60,1.19999,,,,,,,,,,,,,,0,109,109,67,1,,,,,,,,,,,,,,,,,,,,,,,,,,
,,,,,,,,,,,,a,Correct!,,,,,,t3.png,t2.png,1,0.90855,20 ,Male,2020-11-02_14h31.26.748,torte-q,2020.1.3,Win32,60,0.593485,,,,,,,,,,,,,,0,110,110,97,1,,,,,,,,,,,,,,,,,,,,,,,,,,
,,,,,,,,,,,,a,Incorrect,,,,,,t3.png,t5.png,2,0.056466,20 ,Male,2020-11-02_14h31.26.748,torte-q,2020.1.3,Win32,60,0.596875,,,,,,,,,,,,,,0,111,111,14,1,,,,,,,,,,,,,,,,,,,,,,,,,,
,,,,,,,,,,,,l,Incorrect,,,,,,t4.png,t4.png,0,0.98115,20 ,Male,2020-11-02_14h31.26.748,torte-q,2020.1.3,Win32,60,1.58922,,,,,,,,,,,,,,0,112,112,21,1,,,,,,,,,,,,,,,,,,,,,,,,,,
,,,,,,,,,,,,a,Incorrect,,,,,,t5.png,t3.png,2,0.056466,20 ,Male,2020-11-02_14h31.26.748,torte-q,2020.1.3,Win32,60,0.807195,,,,,,,,,,,,,,0,113,113,114,1,,,,,,,,,,,,,,,,,,,,,,,,,,
,,,,,,,,,,,,a,Incorrect,,,,,,t4.png,t3.png,1,0.90855,20 ,Male,2020-11-02_14h31.26.748,torte-q,2020.1.3,Win32,60,1.021935,,,,,,,,,,,,,,0,114,114,45,1,,,,,,,,,,,,,,,,,,,,,,,,,,
,,,,,,,,,,,,a,Incorrect,,,,,,t2.png,t4.png,2,0.059078,20 ,Male,2020-11-02_14h31.26.748,torte-q,2020.1.3,Win32,60,1.13189,,,,,,,,,,,,,,0,115,115,24,1,,,,,,,,,,,,,,,,,,,,,,,,,,
,,,,,,,,,,,,a,Correct!,,,,,,t2.png,t1.png,1,0.90025,20 ,Male,2020-11-02_14h31.26.748,torte-q,2020.1.3,Win32,60,1.013985,,,,,,,,,,,,,,0,116,116,5,1,,,,,,,,,,,,,,,,,,,,,,,,,,
,,,,,,,,,,,,a,Correct!,,,,,,t2.png,t3.png,1,0.90855,20 ,Male,2020-11-02_14h31.26.748,torte-q,2020.1.3,Win32,60,1.13174,,,,,,,,,,,,,,0,117,117,65,1,,,,,,,,,,,,,,,,,,,,,,,,,,
,,,,,,,,,,,,l,Correct!,,,,,,t1.png,t4.png,3,0.0000131,20 ,Male,2020-11-02_14h31.26.748,torte-q,2020.1.3,Win32,60,1.101115,,,,,,,,,,,,,,0,118,118,17,1,,,,,,,,,,,,,,,,,,,,,,,,,,
,,,,,,,,,,,,l,Correct!,,,,,,t2.png,t5.png,3,0.0000131,20 ,Male,2020-11-02_14h31.26.748,torte-q,2020.1.3,Win32,60,1.14573,,,,,,,,,,,,,,0,119,119,40,1,,,,,,,,,,,,,,,,,,,,,,,,,,
,,,,,,,,,,,,,,,,,,,,,,,20 ,Male,2020-11-02_14h31.26.748,torte-q,2020.1.3,Win32,60,,space,2.14312,,,,,,,,,,,,,,,,,2.940000153,4.384405,-103.3333173,119.3333262,1,0,0,s2,-75.99998319,33.99999028,1,0,0,t2,203.3333585,-107.3333473,1,0,0,proceed,space,1.83807,space,0.813065,space,0.65017
