key_resp_8.keys,key_resp_8.rt,key_resp_9.keys,key_resp_9.rt,key_resp_10.keys,key_resp_10.rt,key_resp_11.keys,key_resp_11.rt,key_resp_2.keys,key_resp_2.rt,key_resp_3.keys,key_resp_3.rt,key_resp.keys,key_resp.rt,Feedback,train.thisRepN,train.thisTrialN,train.thisN,train.thisIndex,train.ran,torta_sx,torta_dx,difference,probability,age,gender,date,expName,psychopyVersion,OS,frameRate,key_resp_15.keys,key_resp_15.rt,key_resp_6.keys,key_resp_6.rt,test1.thisRepN,test1.thisTrialN,test1.thisN,test1.thisIndex,test1.ran,key_resp_16.keys,key_resp_16.rt,key_resp_7.keys,key_resp_7.rt,test2.thisRepN,test2.thisTrialN,test2.thisN,test2.thisIndex,test2.ran,rating.response,rating.rt,mouse.x,mouse.y,mouse.leftButton,mouse.midButton,mouse.rightButton,mouse.clicked_name,mouse_2.x,mouse_2.y,mouse_2.leftButton,mouse_2.midButton,mouse_2.rightButton,mouse_2.clicked_name,mouse_3.x,mouse_3.y,mouse_3.leftButton,mouse_3.midButton,mouse_3.rightButton,mouse_3.clicked_name,key_resp_12.keys,key_resp_12.rt,key_resp_13.keys,key_resp_13.rt,key_resp_14.keys,key_resp_14.rt
space,10.820645,space,32.01676,space,12.253255,space,10.74638,space,67.99459,space,49.90909,l,1.47125,Incorrect,0,0,0,7,1,t4.png,t5.png,1,0.90025,19,Female,2020-10-22_21h29.04.780,torte-q,2020.1.3,MacIntel,60,,,,,,,,,,,,,,,,,,,,,,,,,,,,,,,,,,,,,,,,,,,,
,,,,,,,,,,,,l,1.846075,Correct!,0,1,1,11,1,t1.png,t4.png,3,0.0000131,19,Female,2020-10-22_21h29.04.780,torte-q,2020.1.3,MacIntel,60,,,,,,,,,,,,,,,,,,,,,,,,,,,,,,,,,,,,,,,,,,,,
,,,,,,,,,,,,l,2.13415,Incorrect,0,2,2,97,1,t5.png,t5.png,0,0.97829,19,Female,2020-10-22_21h29.04.780,torte-q,2020.1.3,MacIntel,60,,,,,,,,,,,,,,,,,,,,,,,,,,,,,,,,,,,,,,,,,,,,
,,,,,,,,,,,,,,Too slow :(,0,3,3,70,1,t5.png,t5.png,0,0.978,19,Female,2020-10-22_21h29.04.780,torte-q,2020.1.3,MacIntel,60,,,,,,,,,,,,,,,,,,,,,,,,,,,,,,,,,,,,,,,,,,,,
,,,,,,,,,,,,l,0.940265,Incorrect,0,4,4,44,1,t2.png,t3.png,1,0.909,19,Female,2020-10-22_21h29.04.780,torte-q,2020.1.3,MacIntel,60,,,,,,,,,,,,,,,,,,,,,,,,,,,,,,,,,,,,,,,,,,,,
,,,,,,,,,,,,,,Too slow :(,0,5,5,9,1,t4.png,t5.png,1,0.9,19,Female,2020-10-22_21h29.04.780,torte-q,2020.1.3,MacIntel,60,,,,,,,,,,,,,,,,,,,,,,,,,,,,,,,,,,,,,,,,,,,,
,,,,,,,,,,,,,,Too slow :(,0,6,6,2,1,t3.png,t2.png,1,0.90855,19,Female,2020-10-22_21h29.04.780,torte-q,2020.1.3,MacIntel,60,,,,,,,,,,,,,,,,,,,,,,,,,,,,,,,,,,,,,,,,,,,,
,,,,,,,,,,,,,,Too slow :(,0,7,7,1,1,t2.png,t4.png,2,0.059078,19,Female,2020-10-22_21h29.04.780,torte-q,2020.1.3,MacIntel,60,,,,,,,,,,,,,,,,,,,,,,,,,,,,,,,,,,,,,,,,,,,,
,,,,,,,,,,,,l,0.816075,Incorrect,0,8,8,71,1,t5.png,t5.png,0,0.97829,19,Female,2020-10-22_21h29.04.780,torte-q,2020.1.3,MacIntel,60,,,,,,,,,,,,,,,,,,,,,,,,,,,,,,,,,,,,,,,,,,,,
,,,,,,,,,,,,a,0.803825,Correct!,0,9,9,58,1,t5.png,t4.png,1,0.90025,19,Female,2020-10-22_21h29.04.780,torte-q,2020.1.3,MacIntel,60,,,,,,,,,,,,,,,,,,,,,,,,,,,,,,,,,,,,,,,,,,,,
,,,,,,,,,,,,a,0.776205,Correct!,0,10,10,15,1,t3.png,t2.png,1,0.90855,19,Female,2020-10-22_21h29.04.780,torte-q,2020.1.3,MacIntel,60,,,,,,,,,,,,,,,,,,,,,,,,,,,,,,,,,,,,,,,,,,,,
,,,,,,,,,,,,l,2.03519,Correct!,0,11,11,93,1,t2.png,t4.png,2,0.059078,19,Female,2020-10-22_21h29.04.780,torte-q,2020.1.3,MacIntel,60,,,,,,,,,,,,,,,,,,,,,,,,,,,,,,,,,,,,,,,,,,,,
,,,,,,,,,,,,l,1.50167,Incorrect,0,12,12,22,1,t2.png,t3.png,1,0.90855,19,Female,2020-10-22_21h29.04.780,torte-q,2020.1.3,MacIntel,60,,,,,,,,,,,,,,,,,,,,,,,,,,,,,,,,,,,,,,,,,,,,
,,,,,,,,,,,,a,2.09981,Correct!,0,13,13,18,1,t4.png,t5.png,1,0.90025,19,Female,2020-10-22_21h29.04.780,torte-q,2020.1.3,MacIntel,60,,,,,,,,,,,,,,,,,,,,,,,,,,,,,,,,,,,,,,,,,,,,
,,,,,,,,,,,,a,0.75123,Correct!,0,14,14,39,1,t3.png,t2.png,1,0.90855,19,Female,2020-10-22_21h29.04.780,torte-q,2020.1.3,MacIntel,60,,,,,,,,,,,,,,,,,,,,,,,,,,,,,,,,,,,,,,,,,,,,
,,,,,,,,,,,,a,0.92321,Incorrect,0,15,15,43,1,t4.png,t2.png,2,0.059078,19,Female,2020-10-22_21h29.04.780,torte-q,2020.1.3,MacIntel,60,,,,,,,,,,,,,,,,,,,,,,,,,,,,,,,,,,,,,,,,,,,,
,,,,,,,,,,,,a,2.07187,Incorrect,0,16,16,119,1,t1.png,t5.png,4,9.55E-11,19,Female,2020-10-22_21h29.04.780,torte-q,2020.1.3,MacIntel,60,,,,,,,,,,,,,,,,,,,,,,,,,,,,,,,,,,,,,,,,,,,,
,,,,,,,,,,,,l,1.088995,Incorrect,0,17,17,66,1,t4.png,t5.png,1,0.9,19,Female,2020-10-22_21h29.04.780,torte-q,2020.1.3,MacIntel,60,,,,,,,,,,,,,,,,,,,,,,,,,,,,,,,,,,,,,,,,,,,,
,,,,,,,,,,,,l,1.469165,Incorrect,0,18,18,114,1,t2.png,t3.png,1,0.90855,19,Female,2020-10-22_21h29.04.780,torte-q,2020.1.3,MacIntel,60,,,,,,,,,,,,,,,,,,,,,,,,,,,,,,,,,,,,,,,,,,,,
,,,,,,,,,,,,l,2.208235,Incorrect,0,19,19,77,1,t1.png,t1.png,0,0.97829,19,Female,2020-10-22_21h29.04.780,torte-q,2020.1.3,MacIntel,60,,,,,,,,,,,,,,,,,,,,,,,,,,,,,,,,,,,,,,,,,,,,
,,,,,,,,,,,,a,0.79059,Incorrect,0,20,20,59,1,t5.png,t4.png,1,0.9,19,Female,2020-10-22_21h29.04.780,torte-q,2020.1.3,MacIntel,60,,,,,,,,,,,,,,,,,,,,,,,,,,,,,,,,,,,,,,,,,,,,
,,,,,,,,,,,,a,2.25148,Correct!,0,21,21,45,1,t3.png,t2.png,1,0.90855,19,Female,2020-10-22_21h29.04.780,torte-q,2020.1.3,MacIntel,60,,,,,,,,,,,,,,,,,,,,,,,,,,,,,,,,,,,,,,,,,,,,
,,,,,,,,,,,,a,0.919895,Correct!,0,22,22,34,1,t5.png,t4.png,1,0.9,19,Female,2020-10-22_21h29.04.780,torte-q,2020.1.3,MacIntel,60,,,,,,,,,,,,,,,,,,,,,,,,,,,,,,,,,,,,,,,,,,,,
,,,,,,,,,,,,l,1.449865,Correct!,0,23,23,82,1,t5.png,t1.png,4,9.55E-11,19,Female,2020-10-22_21h29.04.780,torte-q,2020.1.3,MacIntel,60,,,,,,,,,,,,,,,,,,,,,,,,,,,,,,,,,,,,,,,,,,,,
,,,,,,,,,,,,a,1.17563,Incorrect,0,24,24,6,1,t1.png,t4.png,3,0.0000131,19,Female,2020-10-22_21h29.04.780,torte-q,2020.1.3,MacIntel,60,,,,,,,,,,,,,,,,,,,,,,,,,,,,,,,,,,,,,,,,,,,,
,,,,,,,,,,,,l,1.53596,Correct!,0,25,25,54,1,t1.png,t5.png,4,9.55E-11,19,Female,2020-10-22_21h29.04.780,torte-q,2020.1.3,MacIntel,60,,,,,,,,,,,,,,,,,,,,,,,,,,,,,,,,,,,,,,,,,,,,
,,,,,,,,,,,,a,0.985275,Incorrect,0,26,26,31,1,t1.png,t5.png,4,9.55E-11,19,Female,2020-10-22_21h29.04.780,torte-q,2020.1.3,MacIntel,60,,,,,,,,,,,,,,,,,,,,,,,,,,,,,,,,,,,,,,,,,,,,
,,,,,,,,,,,,,,Too slow :(,0,27,27,5,1,t2.png,t4.png,2,0.059078,19,Female,2020-10-22_21h29.04.780,torte-q,2020.1.3,MacIntel,60,,,,,,,,,,,,,,,,,,,,,,,,,,,,,,,,,,,,,,,,,,,,
,,,,,,,,,,,,a,1.80294,Incorrect,0,28,28,68,1,t1.png,t4.png,3,0.0000131,19,Female,2020-10-22_21h29.04.780,torte-q,2020.1.3,MacIntel,60,,,,,,,,,,,,,,,,,,,,,,,,,,,,,,,,,,,,,,,,,,,,
,,,,,,,,,,,,l,2.138255,Correct!,0,29,29,89,1,t1.png,t4.png,3,0.0000131,19,Female,2020-10-22_21h29.04.780,torte-q,2020.1.3,MacIntel,60,,,,,,,,,,,,,,,,,,,,,,,,,,,,,,,,,,,,,,,,,,,,
,,,,,,,,,,,,l,1.30588,Incorrect,0,30,30,65,1,t4.png,t5.png,1,0.90025,19,Female,2020-10-22_21h29.04.780,torte-q,2020.1.3,MacIntel,60,,,,,,,,,,,,,,,,,,,,,,,,,,,,,,,,,,,,,,,,,,,,
,,,,,,,,,,,,l,1.623705,Incorrect,0,31,31,110,1,t4.png,t5.png,1,0.90025,19,Female,2020-10-22_21h29.04.780,torte-q,2020.1.3,MacIntel,60,,,,,,,,,,,,,,,,,,,,,,,,,,,,,,,,,,,,,,,,,,,,
,,,,,,,,,,,,a,1.125195,Incorrect,0,32,32,19,1,t4.png,t2.png,2,0.059078,19,Female,2020-10-22_21h29.04.780,torte-q,2020.1.3,MacIntel,60,,,,,,,,,,,,,,,,,,,,,,,,,,,,,,,,,,,,,,,,,,,,
,,,,,,,,,,,,a,1.538325,Incorrect,0,33,33,105,1,t3.png,t2.png,1,0.90855,19,Female,2020-10-22_21h29.04.780,torte-q,2020.1.3,MacIntel,60,,,,,,,,,,,,,,,,,,,,,,,,,,,,,,,,,,,,,,,,,,,,
,,,,,,,,,,,,l,2.35346,Correct!,0,34,34,17,1,t1.png,t4.png,3,0.0000131,19,Female,2020-10-22_21h29.04.780,torte-q,2020.1.3,MacIntel,60,,,,,,,,,,,,,,,,,,,,,,,,,,,,,,,,,,,,,,,,,,,,
,,,,,,,,,,,,a,2.316775,Correct!,0,35,35,112,1,t1.png,t1.png,0,0.97829,19,Female,2020-10-22_21h29.04.780,torte-q,2020.1.3,MacIntel,60,,,,,,,,,,,,,,,,,,,,,,,,,,,,,,,,,,,,,,,,,,,,
,,,,,,,,,,,,l,2.115935,Incorrect,0,36,36,62,1,t5.png,t5.png,0,0.978,19,Female,2020-10-22_21h29.04.780,torte-q,2020.1.3,MacIntel,60,,,,,,,,,,,,,,,,,,,,,,,,,,,,,,,,,,,,,,,,,,,,
,,,,,,,,,,,,a,1.26879,Incorrect,0,37,37,73,1,t4.png,t2.png,2,0.059078,19,Female,2020-10-22_21h29.04.780,torte-q,2020.1.3,MacIntel,60,,,,,,,,,,,,,,,,,,,,,,,,,,,,,,,,,,,,,,,,,,,,
,,,,,,,,,,,,l,1.56893,Incorrect,0,38,38,28,1,t2.png,t3.png,1,0.909,19,Female,2020-10-22_21h29.04.780,torte-q,2020.1.3,MacIntel,60,,,,,,,,,,,,,,,,,,,,,,,,,,,,,,,,,,,,,,,,,,,,
,,,,,,,,,,,,l,2.087055,Incorrect,0,39,39,86,1,t3.png,t1.png,2,0.056466,19,Female,2020-10-22_21h29.04.780,torte-q,2020.1.3,MacIntel,60,,,,,,,,,,,,,,,,,,,,,,,,,,,,,,,,,,,,,,,,,,,,
,,,,,,,,,,,,a,1.235025,Incorrect,0,40,40,72,1,t4.png,t2.png,2,0.059078,19,Female,2020-10-22_21h29.04.780,torte-q,2020.1.3,MacIntel,60,,,,,,,,,,,,,,,,,,,,,,,,,,,,,,,,,,,,,,,,,,,,
,,,,,,,,,,,,l,1.257925,Incorrect,0,41,41,29,1,t5.png,t5.png,0,0.97829,19,Female,2020-10-22_21h29.04.780,torte-q,2020.1.3,MacIntel,60,,,,,,,,,,,,,,,,,,,,,,,,,,,,,,,,,,,,,,,,,,,,
,,,,,,,,,,,,a,1.101215,Correct!,0,42,42,30,1,t3.png,t1.png,2,0.056466,19,Female,2020-10-22_21h29.04.780,torte-q,2020.1.3,MacIntel,60,,,,,,,,,,,,,,,,,,,,,,,,,,,,,,,,,,,,,,,,,,,,
,,,,,,,,,,,,l,1.73426,Correct!,0,43,43,67,1,t1.png,t5.png,4,9.55E-11,19,Female,2020-10-22_21h29.04.780,torte-q,2020.1.3,MacIntel,60,,,,,,,,,,,,,,,,,,,,,,,,,,,,,,,,,,,,,,,,,,,,
,,,,,,,,,,,,l,1.186675,Correct!,0,44,44,90,1,t1.png,t5.png,4,9.55E-11,19,Female,2020-10-22_21h29.04.780,torte-q,2020.1.3,MacIntel,60,,,,,,,,,,,,,,,,,,,,,,,,,,,,,,,,,,,,,,,,,,,,
,,,,,,,,,,,,a,1.521315,Correct!,0,45,45,95,1,t1.png,t1.png,0,0.978,19,Female,2020-10-22_21h29.04.780,torte-q,2020.1.3,MacIntel,60,,,,,,,,,,,,,,,,,,,,,,,,,,,,,,,,,,,,,,,,,,,,
,,,,,,,,,,,,a,1.70801,Incorrect,0,46,46,26,1,t4.png,t2.png,2,0.0591,19,Female,2020-10-22_21h29.04.780,torte-q,2020.1.3,MacIntel,60,,,,,,,,,,,,,,,,,,,,,,,,,,,,,,,,,,,,,,,,,,,,
,,,,,,,,,,,,l,1.287875,Correct!,0,47,47,35,1,t1.png,t4.png,3,0.0000131,19,Female,2020-10-22_21h29.04.780,torte-q,2020.1.3,MacIntel,60,,,,,,,,,,,,,,,,,,,,,,,,,,,,,,,,,,,,,,,,,,,,
,,,,,,,,,,,,l,1.28569,Correct!,0,48,48,37,1,t1.png,t4.png,3,0.0000131,19,Female,2020-10-22_21h29.04.780,torte-q,2020.1.3,MacIntel,60,,,,,,,,,,,,,,,,,,,,,,,,,,,,,,,,,,,,,,,,,,,,
,,,,,,,,,,,,l,1.735125,Correct!,0,49,49,3,1,t1.png,t5.png,4,9.55E-11,19,Female,2020-10-22_21h29.04.780,torte-q,2020.1.3,MacIntel,60,,,,,,,,,,,,,,,,,,,,,,,,,,,,,,,,,,,,,,,,,,,,
,,,,,,,,,,,,,,Too slow :(,0,50,50,104,1,t2.png,t3.png,1,0.90855,19,Female,2020-10-22_21h29.04.780,torte-q,2020.1.3,MacIntel,60,,,,,,,,,,,,,,,,,,,,,,,,,,,,,,,,,,,,,,,,,,,,
,,,,,,,,,,,,l,1.082815,Incorrect,0,51,51,92,1,t2.png,t3.png,1,0.909,19,Female,2020-10-22_21h29.04.780,torte-q,2020.1.3,MacIntel,60,,,,,,,,,,,,,,,,,,,,,,,,,,,,,,,,,,,,,,,,,,,,
,,,,,,,,,,,,l,1.09961,Incorrect,0,52,52,20,1,t2.png,t3.png,1,0.90855,19,Female,2020-10-22_21h29.04.780,torte-q,2020.1.3,MacIntel,60,,,,,,,,,,,,,,,,,,,,,,,,,,,,,,,,,,,,,,,,,,,,
,,,,,,,,,,,,a,2.05054,Incorrect,0,53,53,103,1,t3.png,t1.png,2,0.056466,19,Female,2020-10-22_21h29.04.780,torte-q,2020.1.3,MacIntel,60,,,,,,,,,,,,,,,,,,,,,,,,,,,,,,,,,,,,,,,,,,,,
,,,,,,,,,,,,a,1.05466,Correct!,0,54,54,76,1,t3.png,t2.png,1,0.90855,19,Female,2020-10-22_21h29.04.780,torte-q,2020.1.3,MacIntel,60,,,,,,,,,,,,,,,,,,,,,,,,,,,,,,,,,,,,,,,,,,,,
,,,,,,,,,,,,l,1.032975,Incorrect,0,55,55,63,1,t2.png,t3.png,1,0.909,19,Female,2020-10-22_21h29.04.780,torte-q,2020.1.3,MacIntel,60,,,,,,,,,,,,,,,,,,,,,,,,,,,,,,,,,,,,,,,,,,,,
,,,,,,,,,,,,a,1.304175,Incorrect,0,56,56,36,1,t3.png,t1.png,2,0.0565,19,Female,2020-10-22_21h29.04.780,torte-q,2020.1.3,MacIntel,60,,,,,,,,,,,,,,,,,,,,,,,,,,,,,,,,,,,,,,,,,,,,
,,,,,,,,,,,,l,0.550955,Correct!,0,57,57,87,1,t5.png,t1.png,4,9.55E-11,19,Female,2020-10-22_21h29.04.780,torte-q,2020.1.3,MacIntel,60,,,,,,,,,,,,,,,,,,,,,,,,,,,,,,,,,,,,,,,,,,,,
,,,,,,,,,,,,a,0.587655,Correct!,0,58,58,81,1,t1.png,t1.png,0,0.97829,19,Female,2020-10-22_21h29.04.780,torte-q,2020.1.3,MacIntel,60,,,,,,,,,,,,,,,,,,,,,,,,,,,,,,,,,,,,,,,,,,,,
,,,,,,,,,,,,l,1.80451,Correct!,0,59,59,98,1,t2.png,t4.png,2,0.0591,19,Female,2020-10-22_21h29.04.780,torte-q,2020.1.3,MacIntel,60,,,,,,,,,,,,,,,,,,,,,,,,,,,,,,,,,,,,,,,,,,,,
,,,,,,,,,,,,l,2.42287,Correct!,0,60,60,46,1,t4.png,t2.png,2,0.059078,19,Female,2020-10-22_21h29.04.780,torte-q,2020.1.3,MacIntel,60,,,,,,,,,,,,,,,,,,,,,,,,,,,,,,,,,,,,,,,,,,,,
,,,,,,,,,,,,l,2.450065,Incorrect,0,61,61,41,1,t3.png,t2.png,1,0.90855,19,Female,2020-10-22_21h29.04.780,torte-q,2020.1.3,MacIntel,60,,,,,,,,,,,,,,,,,,,,,,,,,,,,,,,,,,,,,,,,,,,,
,,,,,,,,,,,,l,1.316275,Correct!,0,62,62,83,1,t3.png,t1.png,2,0.056466,19,Female,2020-10-22_21h29.04.780,torte-q,2020.1.3,MacIntel,60,,,,,,,,,,,,,,,,,,,,,,,,,,,,,,,,,,,,,,,,,,,,
,,,,,,,,,,,,a,1.020345,Correct!,0,63,63,13,1,t5.png,t5.png,0,0.97829,19,Female,2020-10-22_21h29.04.780,torte-q,2020.1.3,MacIntel,60,,,,,,,,,,,,,,,,,,,,,,,,,,,,,,,,,,,,,,,,,,,,
,,,,,,,,,,,,l,1.171275,Incorrect,0,64,64,100,1,t4.png,t5.png,1,0.90025,19,Female,2020-10-22_21h29.04.780,torte-q,2020.1.3,MacIntel,60,,,,,,,,,,,,,,,,,,,,,,,,,,,,,,,,,,,,,,,,,,,,
,,,,,,,,,,,,a,0.87254,Correct!,0,65,65,101,1,t4.png,t5.png,1,0.90025,19,Female,2020-10-22_21h29.04.780,torte-q,2020.1.3,MacIntel,60,,,,,,,,,,,,,,,,,,,,,,,,,,,,,,,,,,,,,,,,,,,,
,,,,,,,,,,,,a,0.769955,Correct!,0,66,66,109,1,t5.png,t5.png,0,0.97829,19,Female,2020-10-22_21h29.04.780,torte-q,2020.1.3,MacIntel,60,,,,,,,,,,,,,,,,,,,,,,,,,,,,,,,,,,,,,,,,,,,,
,,,,,,,,,,,,a,0.602425,Incorrect,0,67,67,56,1,t5.png,t1.png,4,9.55E-11,19,Female,2020-10-22_21h29.04.780,torte-q,2020.1.3,MacIntel,60,,,,,,,,,,,,,,,,,,,,,,,,,,,,,,,,,,,,,,,,,,,,
,,,,,,,,,,,,l,0.84999,Incorrect,0,68,68,16,1,t5.png,t4.png,1,0.9,19,Female,2020-10-22_21h29.04.780,torte-q,2020.1.3,MacIntel,60,,,,,,,,,,,,,,,,,,,,,,,,,,,,,,,,,,,,,,,,,,,,
,,,,,,,,,,,,l,1.918915,Correct!,0,69,69,88,1,t3.png,t1.png,2,0.056466,19,Female,2020-10-22_21h29.04.780,torte-q,2020.1.3,MacIntel,60,,,,,,,,,,,,,,,,,,,,,,,,,,,,,,,,,,,,,,,,,,,,
,,,,,,,,,,,,,,Too slow :(,0,70,70,61,1,t1.png,t4.png,3,0.0000131,19,Female,2020-10-22_21h29.04.780,torte-q,2020.1.3,MacIntel,60,,,,,,,,,,,,,,,,,,,,,,,,,,,,,,,,,,,,,,,,,,,,
,,,,,,,,,,,,a,1.452335,Correct!,0,71,71,85,1,t3.png,t2.png,1,0.90855,19,Female,2020-10-22_21h29.04.780,torte-q,2020.1.3,MacIntel,60,,,,,,,,,,,,,,,,,,,,,,,,,,,,,,,,,,,,,,,,,,,,
,,,,,,,,,,,,,,Too slow :(,0,72,72,102,1,t4.png,t2.png,2,0.059078,19,Female,2020-10-22_21h29.04.780,torte-q,2020.1.3,MacIntel,60,,,,,,,,,,,,,,,,,,,,,,,,,,,,,,,,,,,,,,,,,,,,
,,,,,,,,,,,,a,2.05474,Incorrect,0,73,73,47,1,t4.png,t2.png,2,0.059078,19,Female,2020-10-22_21h29.04.780,torte-q,2020.1.3,MacIntel,60,,,,,,,,,,,,,,,,,,,,,,,,,,,,,,,,,,,,,,,,,,,,
,,,,,,,,,,,,l,1.25165,Correct!,0,74,74,53,1,t3.png,t1.png,2,0.056466,19,Female,2020-10-22_21h29.04.780,torte-q,2020.1.3,MacIntel,60,,,,,,,,,,,,,,,,,,,,,,,,,,,,,,,,,,,,,,,,,,,,
,,,,,,,,,,,,a,1.600805,Correct!,0,75,75,64,1,t1.png,t1.png,0,0.978,19,Female,2020-10-22_21h29.04.780,torte-q,2020.1.3,MacIntel,60,,,,,,,,,,,,,,,,,,,,,,,,,,,,,,,,,,,,,,,,,,,,
,,,,,,,,,,,,l,1.33688,Incorrect,0,76,76,32,1,t4.png,t5.png,1,0.90025,19,Female,2020-10-22_21h29.04.780,torte-q,2020.1.3,MacIntel,60,,,,,,,,,,,,,,,,,,,,,,,,,,,,,,,,,,,,,,,,,,,,
,,,,,,,,,,,,l,1.870865,Correct!,0,77,77,57,1,t2.png,t4.png,2,0.059078,19,Female,2020-10-22_21h29.04.780,torte-q,2020.1.3,MacIntel,60,,,,,,,,,,,,,,,,,,,,,,,,,,,,,,,,,,,,,,,,,,,,
,,,,,,,,,,,,l,1.50427,Incorrect,0,78,78,106,1,t2.png,t3.png,1,0.90855,19,Female,2020-10-22_21h29.04.780,torte-q,2020.1.3,MacIntel,60,,,,,,,,,,,,,,,,,,,,,,,,,,,,,,,,,,,,,,,,,,,,
,,,,,,,,,,,,a,1.986885,Incorrect,0,79,79,24,1,t4.png,t2.png,2,0.059078,19,Female,2020-10-22_21h29.04.780,torte-q,2020.1.3,MacIntel,60,,,,,,,,,,,,,,,,,,,,,,,,,,,,,,,,,,,,,,,,,,,,
,,,,,,,,,,,,,,Too slow :(,0,80,80,23,1,t5.png,t4.png,1,0.90025,19,Female,2020-10-22_21h29.04.780,torte-q,2020.1.3,MacIntel,60,,,,,,,,,,,,,,,,,,,,,,,,,,,,,,,,,,,,,,,,,,,,
,,,,,,,,,,,,a,1.308435,Correct!,0,81,81,14,1,t2.png,t4.png,2,0.059078,19,Female,2020-10-22_21h29.04.780,torte-q,2020.1.3,MacIntel,60,,,,,,,,,,,,,,,,,,,,,,,,,,,,,,,,,,,,,,,,,,,,
,,,,,,,,,,,,l,1.71633,Correct!,0,82,82,21,1,t5.png,t4.png,1,0.90025,19,Female,2020-10-22_21h29.04.780,torte-q,2020.1.3,MacIntel,60,,,,,,,,,,,,,,,,,,,,,,,,,,,,,,,,,,,,,,,,,,,,
,,,,,,,,,,,,a,1.50509,Incorrect,0,83,83,108,1,t5.png,t1.png,4,9.55E-11,19,Female,2020-10-22_21h29.04.780,torte-q,2020.1.3,MacIntel,60,,,,,,,,,,,,,,,,,,,,,,,,,,,,,,,,,,,,,,,,,,,,
,,,,,,,,,,,,a,0.972255,Incorrect,0,84,84,80,1,t1.png,t4.png,3,0.0000131,19,Female,2020-10-22_21h29.04.780,torte-q,2020.1.3,MacIntel,60,,,,,,,,,,,,,,,,,,,,,,,,,,,,,,,,,,,,,,,,,,,,
,,,,,,,,,,,,l,0.86786,Incorrect,0,85,85,48,1,t5.png,t5.png,0,0.97829,19,Female,2020-10-22_21h29.04.780,torte-q,2020.1.3,MacIntel,60,,,,,,,,,,,,,,,,,,,,,,,,,,,,,,,,,,,,,,,,,,,,
,,,,,,,,,,,,a,0.61889,Correct!,0,86,86,79,1,t3.png,t2.png,1,0.909,19,Female,2020-10-22_21h29.04.780,torte-q,2020.1.3,MacIntel,60,,,,,,,,,,,,,,,,,,,,,,,,,,,,,,,,,,,,,,,,,,,,
,,,,,,,,,,,,a,0.88757,Incorrect,0,87,87,0,1,t5.png,t1.png,4,9.55E-11,19,Female,2020-10-22_21h29.04.780,torte-q,2020.1.3,MacIntel,60,,,,,,,,,,,,,,,,,,,,,,,,,,,,,,,,,,,,,,,,,,,,
,,,,,,,,,,,,a,0.60229,Incorrect,0,88,88,38,1,t3.png,t1.png,2,0.056466,19,Female,2020-10-22_21h29.04.780,torte-q,2020.1.3,MacIntel,60,,,,,,,,,,,,,,,,,,,,,,,,,,,,,,,,,,,,,,,,,,,,
,,,,,,,,,,,,a,0.97889,Correct!,0,89,89,96,1,t1.png,t1.png,0,0.97829,19,Female,2020-10-22_21h29.04.780,torte-q,2020.1.3,MacIntel,60,,,,,,,,,,,,,,,,,,,,,,,,,,,,,,,,,,,,,,,,,,,,
,,,,,,,,,,,,l,1.08635,Incorrect,0,90,90,118,1,t5.png,t5.png,0,0.978,19,Female,2020-10-22_21h29.04.780,torte-q,2020.1.3,MacIntel,60,,,,,,,,,,,,,,,,,,,,,,,,,,,,,,,,,,,,,,,,,,,,
,,,,,,,,,,,,l,0.63297,Correct!,0,91,91,117,1,t1.png,t5.png,4,9.55E-11,19,Female,2020-10-22_21h29.04.780,torte-q,2020.1.3,MacIntel,60,,,,,,,,,,,,,,,,,,,,,,,,,,,,,,,,,,,,,,,,,,,,
,,,,,,,,,,,,a,0.576065,Correct!,0,92,92,78,1,t1.png,t1.png,0,0.978,19,Female,2020-10-22_21h29.04.780,torte-q,2020.1.3,MacIntel,60,,,,,,,,,,,,,,,,,,,,,,,,,,,,,,,,,,,,,,,,,,,,
,,,,,,,,,,,,l,0.8852,Incorrect,0,93,93,74,1,t5.png,t4.png,1,0.9,19,Female,2020-10-22_21h29.04.780,torte-q,2020.1.3,MacIntel,60,,,,,,,,,,,,,,,,,,,,,,,,,,,,,,,,,,,,,,,,,,,,
,,,,,,,,,,,,a,0.615335,Correct!,0,94,94,8,1,t3.png,t2.png,1,0.90855,19,Female,2020-10-22_21h29.04.780,torte-q,2020.1.3,MacIntel,60,,,,,,,,,,,,,,,,,,,,,,,,,,,,,,,,,,,,,,,,,,,,
,,,,,,,,,,,,a,0.888815,Incorrect,0,95,95,33,1,t5.png,t1.png,4,9.55E-11,19,Female,2020-10-22_21h29.04.780,torte-q,2020.1.3,MacIntel,60,,,,,,,,,,,,,,,,,,,,,,,,,,,,,,,,,,,,,,,,,,,,
,,,,,,,,,,,,l,0.735895,Incorrect,0,96,96,25,1,t5.png,t5.png,0,0.97829,19,Female,2020-10-22_21h29.04.780,torte-q,2020.1.3,MacIntel,60,,,,,,,,,,,,,,,,,,,,,,,,,,,,,,,,,,,,,,,,,,,,
,,,,,,,,,,,,a,0.46728,Incorrect,0,97,97,69,1,t4.png,t2.png,2,0.059078,19,Female,2020-10-22_21h29.04.780,torte-q,2020.1.3,MacIntel,60,,,,,,,,,,,,,,,,,,,,,,,,,,,,,,,,,,,,,,,,,,,,
,,,,,,,,,,,,a,0.53678,Incorrect,0,98,98,12,1,t5.png,t1.png,4,9.55E-11,19,Female,2020-10-22_21h29.04.780,torte-q,2020.1.3,MacIntel,60,,,,,,,,,,,,,,,,,,,,,,,,,,,,,,,,,,,,,,,,,,,,
,,,,,,,,,,,,a,0.50302,Incorrect,0,99,99,42,1,t5.png,t4.png,1,0.90025,19,Female,2020-10-22_21h29.04.780,torte-q,2020.1.3,MacIntel,60,,,,,,,,,,,,,,,,,,,,,,,,,,,,,,,,,,,,,,,,,,,,
,,,,,,,,,,,,a,0.472205,Correct!,0,100,100,116,1,t5.png,t4.png,1,0.90025,19,Female,2020-10-22_21h29.04.780,torte-q,2020.1.3,MacIntel,60,,,,,,,,,,,,,,,,,,,,,,,,,,,,,,,,,,,,,,,,,,,,
,,,,,,,,,,,,l,0.34186,Correct!,0,101,101,94,1,t5.png,t1.png,4,9.55E-11,19,Female,2020-10-22_21h29.04.780,torte-q,2020.1.3,MacIntel,60,,,,,,,,,,,,,,,,,,,,,,,,,,,,,,,,,,,,,,,,,,,,
,,,,,,,,,,,,a,0.88626,Correct!,0,102,102,49,1,t4.png,t5.png,1,0.9,19,Female,2020-10-22_21h29.04.780,torte-q,2020.1.3,MacIntel,60,,,,,,,,,,,,,,,,,,,,,,,,,,,,,,,,,,,,,,,,,,,,
,,,,,,,,,,,,a,0.63841,Correct!,0,103,103,84,1,t1.png,t1.png,0,0.97829,19,Female,2020-10-22_21h29.04.780,torte-q,2020.1.3,MacIntel,60,,,,,,,,,,,,,,,,,,,,,,,,,,,,,,,,,,,,,,,,,,,,
,,,,,,,,,,,,l,1.284615,Correct!,0,104,104,27,1,t3.png,t1.png,2,0.0565,19,Female,2020-10-22_21h29.04.780,torte-q,2020.1.3,MacIntel,60,,,,,,,,,,,,,,,,,,,,,,,,,,,,,,,,,,,,,,,,,,,,
,,,,,,,,,,,,l,0.683575,Correct!,0,105,105,115,1,t2.png,t4.png,2,0.059078,19,Female,2020-10-22_21h29.04.780,torte-q,2020.1.3,MacIntel,60,,,,,,,,,,,,,,,,,,,,,,,,,,,,,,,,,,,,,,,,,,,,
,,,,,,,,,,,,a,0.339255,Incorrect,0,106,106,99,1,t1.png,t5.png,4,9.55E-11,19,Female,2020-10-22_21h29.04.780,torte-q,2020.1.3,MacIntel,60,,,,,,,,,,,,,,,,,,,,,,,,,,,,,,,,,,,,,,,,,,,,
,,,,,,,,,,,,l,0.30582,Correct!,0,107,107,4,1,t1.png,t5.png,4,9.55E-11,19,Female,2020-10-22_21h29.04.780,torte-q,2020.1.3,MacIntel,60,,,,,,,,,,,,,,,,,,,,,,,,,,,,,,,,,,,,,,,,,,,,
,,,,,,,,,,,,a,0.56785,Incorrect,0,108,108,111,1,t5.png,t1.png,4,9.55E-11,19,Female,2020-10-22_21h29.04.780,torte-q,2020.1.3,MacIntel,60,,,,,,,,,,,,,,,,,,,,,,,,,,,,,,,,,,,,,,,,,,,,
,,,,,,,,,,,,l,0.43956,Correct!,0,109,109,60,1,t2.png,t4.png,2,0.059078,19,Female,2020-10-22_21h29.04.780,torte-q,2020.1.3,MacIntel,60,,,,,,,,,,,,,,,,,,,,,,,,,,,,,,,,,,,,,,,,,,,,
,,,,,,,,,,,,l,0.423985,Correct!,0,110,110,51,1,t3.png,t1.png,2,0.056466,19,Female,2020-10-22_21h29.04.780,torte-q,2020.1.3,MacIntel,60,,,,,,,,,,,,,,,,,,,,,,,,,,,,,,,,,,,,,,,,,,,,
,,,,,,,,,,,,l,0.671205,Incorrect,0,111,111,107,1,t1.png,t1.png,0,0.978,19,Female,2020-10-22_21h29.04.780,torte-q,2020.1.3,MacIntel,60,,,,,,,,,,,,,,,,,,,,,,,,,,,,,,,,,,,,,,,,,,,,
,,,,,,,,,,,,l,0.504975,Correct!,0,112,112,55,1,t2.png,t4.png,2,0.059078,19,Female,2020-10-22_21h29.04.780,torte-q,2020.1.3,MacIntel,60,,,,,,,,,,,,,,,,,,,,,,,,,,,,,,,,,,,,,,,,,,,,
,,,,,,,,,,,,a,0.442755,Correct!,0,113,113,75,1,t1.png,t1.png,0,0.97829,19,Female,2020-10-22_21h29.04.780,torte-q,2020.1.3,MacIntel,60,,,,,,,,,,,,,,,,,,,,,,,,,,,,,,,,,,,,,,,,,,,,
,,,,,,,,,,,,l,0.70332,Correct!,0,114,114,91,1,t1.png,t4.png,3,0.0000131,19,Female,2020-10-22_21h29.04.780,torte-q,2020.1.3,MacIntel,60,,,,,,,,,,,,,,,,,,,,,,,,,,,,,,,,,,,,,,,,,,,,
,,,,,,,,,,,,a,0.639635,Correct!,0,115,115,10,1,t2.png,t3.png,1,0.90855,19,Female,2020-10-22_21h29.04.780,torte-q,2020.1.3,MacIntel,60,,,,,,,,,,,,,,,,,,,,,,,,,,,,,,,,,,,,,,,,,,,,
,,,,,,,,,,,,l,1.02672,Correct!,0,116,116,50,1,t5.png,t1.png,4,9.55E-11,19,Female,2020-10-22_21h29.04.780,torte-q,2020.1.3,MacIntel,60,,,,,,,,,,,,,,,,,,,,,,,,,,,,,,,,,,,,,,,,,,,,
,,,,,,,,,,,,l,0.454955,Incorrect,0,117,117,113,1,t5.png,t4.png,1,0.9,19,Female,2020-10-22_21h29.04.780,torte-q,2020.1.3,MacIntel,60,,,,,,,,,,,,,,,,,,,,,,,,,,,,,,,,,,,,,,,,,,,,
,,,,,,,,,,,,a,0.30452,Incorrect,0,118,118,40,1,t1.png,t5.png,4,9.55E-11,19,Female,2020-10-22_21h29.04.780,torte-q,2020.1.3,MacIntel,60,,,,,,,,,,,,,,,,,,,,,,,,,,,,,,,,,,,,,,,,,,,,
,,,,,,,,,,,,l,0.555975,Correct!,0,119,119,52,1,t2.png,t4.png,2,0.059078,19,Female,2020-10-22_21h29.04.780,torte-q,2020.1.3,MacIntel,60,,,,,,,,,,,,,,,,,,,,,,,,,,,,,,,,,,,,,,,,,,,,
,,,,,,,,,,,,,,Too slow :(,,,,,,t5.png,t4.png,1,0.90025,19,Female,2020-10-22_21h29.04.780,torte-q,2020.1.3,MacIntel,60,space,2.00282,return,231.278145,0,0,0,26,1,,,,,,,,,,,,,,,,,,,,,,,,,,,,,,,,,,,
,,,,,,,,,,,,l,1.639135,Incorrect,,,,,,t3.png,t4.png,1,0.909,19,Female,2020-10-22_21h29.04.780,torte-q,2020.1.3,MacIntel,60,,,,,0,1,1,82,1,,,,,,,,,,,,,,,,,,,,,,,,,,,,,,,,,,,
,,,,,,,,,,,,l,2.07191,Incorrect,,,,,,t3.png,t2.png,1,0.90855,19,Female,2020-10-22_21h29.04.780,torte-q,2020.1.3,MacIntel,60,,,,,0,2,2,97,1,,,,,,,,,,,,,,,,,,,,,,,,,,,,,,,,,,,
,,,,,,,,,,,,a,1.04067,Correct!,,,,,,t2.png,t3.png,1,0.90855,19,Female,2020-10-22_21h29.04.780,torte-q,2020.1.3,MacIntel,60,,,,,0,3,3,65,1,,,,,,,,,,,,,,,,,,,,,,,,,,,,,,,,,,,
,,,,,,,,,,,,a,1.69051,Incorrect,,,,,,t1.png,t4.png,3,0.0000131,19,Female,2020-10-22_21h29.04.780,torte-q,2020.1.3,MacIntel,60,,,,,0,4,4,81,1,,,,,,,,,,,,,,,,,,,,,,,,,,,,,,,,,,,
,,,,,,,,,,,,a,1.72301,Correct!,,,,,,t5.png,t5.png,0,0.97829,19,Female,2020-10-22_21h29.04.780,torte-q,2020.1.3,MacIntel,60,,,,,0,5,5,73,1,,,,,,,,,,,,,,,,,,,,,,,,,,,,,,,,,,,
,,,,,,,,,,,,l,1.110155,Incorrect,,,,,,t4.png,t4.png,0,0.98115,19,Female,2020-10-22_21h29.04.780,torte-q,2020.1.3,MacIntel,60,,,,,0,6,6,90,1,,,,,,,,,,,,,,,,,,,,,,,,,,,,,,,,,,,
,,,,,,,,,,,,a,0.886555,Incorrect,,,,,,t1.png,t5.png,4,9.55E-11,19,Female,2020-10-22_21h29.04.780,torte-q,2020.1.3,MacIntel,60,,,,,0,7,7,16,1,,,,,,,,,,,,,,,,,,,,,,,,,,,,,,,,,,,
,,,,,,,,,,,,l,1.272405,Correct!,,,,,,t3.png,t1.png,2,0.056466,19,Female,2020-10-22_21h29.04.780,torte-q,2020.1.3,MacIntel,60,,,,,0,8,8,64,1,,,,,,,,,,,,,,,,,,,,,,,,,,,,,,,,,,,
,,,,,,,,,,,,a,0.869025,Correct!,,,,,,t2.png,t2.png,0,0.98115,19,Female,2020-10-22_21h29.04.780,torte-q,2020.1.3,MacIntel,60,,,,,0,9,9,59,1,,,,,,,,,,,,,,,,,,,,,,,,,,,,,,,,,,,
,,,,,,,,,,,,a,0.68656,Incorrect,,,,,,t2.png,t5.png,3,0.0000131,19,Female,2020-10-22_21h29.04.780,torte-q,2020.1.3,MacIntel,60,,,,,0,10,10,40,1,,,,,,,,,,,,,,,,,,,,,,,,,,,,,,,,,,,
,,,,,,,,,,,,l,1.200515,Incorrect,,,,,,t4.png,t5.png,1,0.90025,19,Female,2020-10-22_21h29.04.780,torte-q,2020.1.3,MacIntel,60,,,,,0,11,11,113,1,,,,,,,,,,,,,,,,,,,,,,,,,,,,,,,,,,,
,,,,,,,,,,,,a,1.621765,Correct!,,,,,,t2.png,t3.png,1,0.90855,19,Female,2020-10-22_21h29.04.780,torte-q,2020.1.3,MacIntel,60,,,,,0,12,12,10,1,,,,,,,,,,,,,,,,,,,,,,,,,,,,,,,,,,,
,,,,,,,,,,,,l,1.29859,Correct!,,,,,,t5.png,t1.png,4,9.55E-11,19,Female,2020-10-22_21h29.04.780,torte-q,2020.1.3,MacIntel,60,,,,,0,13,13,102,1,,,,,,,,,,,,,,,,,,,,,,,,,,,,,,,,,,,
,,,,,,,,,,,,l,1.25392,Incorrect,,,,,,t1.png,t2.png,1,0.9,19,Female,2020-10-22_21h29.04.780,torte-q,2020.1.3,MacIntel,60,,,,,0,14,14,1,1,,,,,,,,,,,,,,,,,,,,,,,,,,,,,,,,,,,
,,,,,,,,,,,,l,1.52145,Incorrect,,,,,,t3.png,t4.png,1,0.90855,19,Female,2020-10-22_21h29.04.780,torte-q,2020.1.3,MacIntel,60,,,,,0,15,15,84,1,,,,,,,,,,,,,,,,,,,,,,,,,,,,,,,,,,,
,,,,,,,,,,,,l,1.775525,Correct!,,,,,,t3.png,t5.png,2,0.056466,19,Female,2020-10-22_21h29.04.780,torte-q,2020.1.3,MacIntel,60,,,,,0,16,16,14,1,,,,,,,,,,,,,,,,,,,,,,,,,,,,,,,,,,,
,,,,,,,,,,,,a,1.475655,Correct!,,,,,,t4.png,t4.png,0,0.98115,19,Female,2020-10-22_21h29.04.780,torte-q,2020.1.3,MacIntel,60,,,,,0,17,17,52,1,,,,,,,,,,,,,,,,,,,,,,,,,,,,,,,,,,,
,,,,,,,,,,,,l,1.203125,Correct!,,,,,,t1.png,t3.png,2,0.056466,19,Female,2020-10-22_21h29.04.780,torte-q,2020.1.3,MacIntel,60,,,,,0,18,18,63,1,,,,,,,,,,,,,,,,,,,,,,,,,,,,,,,,,,,
,,,,,,,,,,,,l,1.20255,Correct!,,,,,,t1.png,t5.png,4,9.55E-11,19,Female,2020-10-22_21h29.04.780,torte-q,2020.1.3,MacIntel,60,,,,,0,19,19,85,1,,,,,,,,,,,,,,,,,,,,,,,,,,,,,,,,,,,
,,,,,,,,,,,,a,1.035015,Incorrect,,,,,,t5.png,t3.png,2,0.0565,19,Female,2020-10-22_21h29.04.780,torte-q,2020.1.3,MacIntel,60,,,,,0,20,20,39,1,,,,,,,,,,,,,,,,,,,,,,,,,,,,,,,,,,,
,,,,,,,,,,,,a,0.903385,Correct!,,,,,,t3.png,t4.png,1,0.909,19,Female,2020-10-22_21h29.04.780,torte-q,2020.1.3,MacIntel,60,,,,,0,21,21,89,1,,,,,,,,,,,,,,,,,,,,,,,,,,,,,,,,,,,
,,,,,,,,,,,,a,1.471355,Correct!,,,,,,t2.png,t3.png,1,0.90855,19,Female,2020-10-22_21h29.04.780,torte-q,2020.1.3,MacIntel,60,,,,,0,22,22,111,1,,,,,,,,,,,,,,,,,,,,,,,,,,,,,,,,,,,
,,,,,,,,,,,,l,0.9992,Correct!,,,,,,t5.png,t2.png,3,0.0000131,19,Female,2020-10-22_21h29.04.780,torte-q,2020.1.3,MacIntel,60,,,,,0,23,23,51,1,,,,,,,,,,,,,,,,,,,,,,,,,,,,,,,,,,,
,,,,,,,,,,,,a,1.133385,Incorrect,,,,,,t2.png,t5.png,3,0.0000131,19,Female,2020-10-22_21h29.04.780,torte-q,2020.1.3,MacIntel,60,,,,,0,24,24,8,1,,,,,,,,,,,,,,,,,,,,,,,,,,,,,,,,,,,
,,,,,,,,,,,,l,1.32763,Correct!,,,,,,t1.png,t3.png,2,0.056466,19,Female,2020-10-22_21h29.04.780,torte-q,2020.1.3,MacIntel,60,,,,,0,25,25,69,1,,,,,,,,,,,,,,,,,,,,,,,,,,,,,,,,,,,
,,,,,,,,,,,,a,1.31952,Correct!,,,,,,t5.png,t5.png,0,0.97829,19,Female,2020-10-22_21h29.04.780,torte-q,2020.1.3,MacIntel,60,,,,,0,26,26,94,1,,,,,,,,,,,,,,,,,,,,,,,,,,,,,,,,,,,
,,,,,,,,,,,,l,1.020675,Correct!,,,,,,t4.png,t1.png,3,0.0000131,19,Female,2020-10-22_21h29.04.780,torte-q,2020.1.3,MacIntel,60,,,,,0,27,27,93,1,,,,,,,,,,,,,,,,,,,,,,,,,,,,,,,,,,,
,,,,,,,,,,,,a,0.969255,Incorrect,,,,,,t2.png,t1.png,1,0.90025,19,Female,2020-10-22_21h29.04.780,torte-q,2020.1.3,MacIntel,60,,,,,0,28,28,19,1,,,,,,,,,,,,,,,,,,,,,,,,,,,,,,,,,,,
,,,,,,,,,,,,a,0.63756,Incorrect,,,,,,t3.png,t1.png,2,0.056466,19,Female,2020-10-22_21h29.04.780,torte-q,2020.1.3,MacIntel,60,,,,,0,29,29,29,1,,,,,,,,,,,,,,,,,,,,,,,,,,,,,,,,,,,
,,,,,,,,,,,,l,1.224315,Correct!,,,,,,t1.png,t5.png,4,9.55E-11,19,Female,2020-10-22_21h29.04.780,torte-q,2020.1.3,MacIntel,60,,,,,0,30,30,55,1,,,,,,,,,,,,,,,,,,,,,,,,,,,,,,,,,,,
,,,,,,,,,,,,l,0.91748,Incorrect,,,,,,t1.png,t1.png,0,0.978,19,Female,2020-10-22_21h29.04.780,torte-q,2020.1.3,MacIntel,60,,,,,0,31,31,54,1,,,,,,,,,,,,,,,,,,,,,,,,,,,,,,,,,,,
,,,,,,,,,,,,a,1.60396,Correct!,,,,,,t2.png,t2.png,0,0.98115,19,Female,2020-10-22_21h29.04.780,torte-q,2020.1.3,MacIntel,60,,,,,0,32,32,2,1,,,,,,,,,,,,,,,,,,,,,,,,,,,,,,,,,,,
,,,,,,,,,,,,a,0.972405,Incorrect,,,,,,t1.png,t4.png,3,0.0000131,19,Female,2020-10-22_21h29.04.780,torte-q,2020.1.3,MacIntel,60,,,,,0,33,33,17,1,,,,,,,,,,,,,,,,,,,,,,,,,,,,,,,,,,,
,,,,,,,,,,,,a,1.03827,Correct!,,,,,,t1.png,t2.png,1,0.90025,19,Female,2020-10-22_21h29.04.780,torte-q,2020.1.3,MacIntel,60,,,,,0,34,34,105,1,,,,,,,,,,,,,,,,,,,,,,,,,,,,,,,,,,,
,,,,,,,,,,,,l,1.14947,Correct!,,,,,,t2.png,t4.png,2,0.059078,19,Female,2020-10-22_21h29.04.780,torte-q,2020.1.3,MacIntel,60,,,,,0,35,35,37,1,,,,,,,,,,,,,,,,,,,,,,,,,,,,,,,,,,,
,,,,,,,,,,,,l,1.219845,Correct!,,,,,,t2.png,t5.png,3,0.0000131,19,Female,2020-10-22_21h29.04.780,torte-q,2020.1.3,MacIntel,60,,,,,0,36,36,66,1,,,,,,,,,,,,,,,,,,,,,,,,,,,,,,,,,,,
,,,,,,,,,,,,a,1.082525,Incorrect,,,,,,t4.png,t1.png,3,0.0000131,19,Female,2020-10-22_21h29.04.780,torte-q,2020.1.3,MacIntel,60,,,,,0,37,37,61,1,,,,,,,,,,,,,,,,,,,,,,,,,,,,,,,,,,,
,,,,,,,,,,,,l,1.421415,Correct!,,,,,,t3.png,t5.png,2,0.0565,19,Female,2020-10-22_21h29.04.780,torte-q,2020.1.3,MacIntel,60,,,,,0,38,38,83,1,,,,,,,,,,,,,,,,,,,,,,,,,,,,,,,,,,,
,,,,,,,,,,,,a,1.050975,Incorrect,,,,,,t5.png,t1.png,4,9.55E-11,19,Female,2020-10-22_21h29.04.780,torte-q,2020.1.3,MacIntel,60,,,,,0,39,39,71,1,,,,,,,,,,,,,,,,,,,,,,,,,,,,,,,,,,,
,,,,,,,,,,,,a,0.600335,Incorrect,,,,,,t4.png,t2.png,2,0.059078,19,Female,2020-10-22_21h29.04.780,torte-q,2020.1.3,MacIntel,60,,,,,0,40,40,110,1,,,,,,,,,,,,,,,,,,,,,,,,,,,,,,,,,,,
,,,,,,,,,,,,a,0.650455,Correct!,,,,,,t4.png,t3.png,1,0.909,19,Female,2020-10-22_21h29.04.780,torte-q,2020.1.3,MacIntel,60,,,,,0,41,41,20,1,,,,,,,,,,,,,,,,,,,,,,,,,,,,,,,,,,,
,,,,,,,,,,,,a,0.438945,Correct!,,,,,,t2.png,t1.png,1,0.90025,19,Female,2020-10-22_21h29.04.780,torte-q,2020.1.3,MacIntel,60,,,,,0,42,42,5,1,,,,,,,,,,,,,,,,,,,,,,,,,,,,,,,,,,,
,,,,,,,,,,,,a,0.634215,Incorrect,,,,,,t5.png,t1.png,4,9.55E-11,19,Female,2020-10-22_21h29.04.780,torte-q,2020.1.3,MacIntel,60,,,,,0,43,43,43,1,,,,,,,,,,,,,,,,,,,,,,,,,,,,,,,,,,,
,,,,,,,,,,,,a,0.705055,Correct!,,,,,,t4.png,t4.png,0,0.98115,19,Female,2020-10-22_21h29.04.780,torte-q,2020.1.3,MacIntel,60,,,,,0,44,44,79,1,,,,,,,,,,,,,,,,,,,,,,,,,,,,,,,,,,,
,,,,,,,,,,,,a,0.66233,Correct!,,,,,,t2.png,t1.png,1,0.9,19,Female,2020-10-22_21h29.04.780,torte-q,2020.1.3,MacIntel,60,,,,,0,45,45,118,1,,,,,,,,,,,,,,,,,,,,,,,,,,,,,,,,,,,
,,,,,,,,,,,,a,0.75028,Incorrect,,,,,,t2.png,t5.png,3,0.0000131,19,Female,2020-10-22_21h29.04.780,torte-q,2020.1.3,MacIntel,60,,,,,0,46,46,104,1,,,,,,,,,,,,,,,,,,,,,,,,,,,,,,,,,,,
,,,,,,,,,,,,a,0.45391,Incorrect,,,,,,t2.png,t4.png,2,0.059078,19,Female,2020-10-22_21h29.04.780,torte-q,2020.1.3,MacIntel,60,,,,,0,47,47,24,1,,,,,,,,,,,,,,,,,,,,,,,,,,,,,,,,,,,
,,,,,,,,,,,,a,1.01666,Correct!,,,,,,t4.png,t5.png,1,0.9,19,Female,2020-10-22_21h29.04.780,torte-q,2020.1.3,MacIntel,60,,,,,0,48,48,115,1,,,,,,,,,,,,,,,,,,,,,,,,,,,,,,,,,,,
,,,,,,,,,,,,a,1.83187,Incorrect,,,,,,t4.png,t1.png,3,0.0000131,19,Female,2020-10-22_21h29.04.780,torte-q,2020.1.3,MacIntel,60,,,,,0,49,49,13,1,,,,,,,,,,,,,,,,,,,,,,,,,,,,,,,,,,,
,,,,,,,,,,,,a,2.15867,Incorrect,,,,,,t4.png,t2.png,2,0.059078,19,Female,2020-10-22_21h29.04.780,torte-q,2020.1.3,MacIntel,60,,,,,0,50,50,88,1,,,,,,,,,,,,,,,,,,,,,,,,,,,,,,,,,,,
,,,,,,,,,,,,a,1.46518,Incorrect,,,,,,t4.png,t2.png,2,0.0591,19,Female,2020-10-22_21h29.04.780,torte-q,2020.1.3,MacIntel,60,,,,,0,51,51,36,1,,,,,,,,,,,,,,,,,,,,,,,,,,,,,,,,,,,
,,,,,,,,,,,,l,0.05073,Correct!,,,,,,t4.png,t2.png,2,0.059078,19,Female,2020-10-22_21h29.04.780,torte-q,2020.1.3,MacIntel,60,,,,,0,52,52,86,1,,,,,,,,,,,,,,,,,,,,,,,,,,,,,,,,,,,
,,,,,,,,,,,,a,1.833375,Incorrect,,,,,,t3.png,t5.png,2,0.056466,19,Female,2020-10-22_21h29.04.780,torte-q,2020.1.3,MacIntel,60,,,,,0,53,53,6,1,,,,,,,,,,,,,,,,,,,,,,,,,,,,,,,,,,,
,,,,,,,,,,,,l,1.08491,Incorrect,,,,,,t5.png,t4.png,1,0.90025,19,Female,2020-10-22_21h29.04.780,torte-q,2020.1.3,MacIntel,60,,,,,0,54,54,27,1,,,,,,,,,,,,,,,,,,,,,,,,,,,,,,,,,,,
,,,,,,,,,,,,l,1.2756,Incorrect,,,,,,t2.png,t2.png,0,0.98115,19,Female,2020-10-22_21h29.04.780,torte-q,2020.1.3,MacIntel,60,,,,,0,55,55,7,1,,,,,,,,,,,,,,,,,,,,,,,,,,,,,,,,,,,
,,,,,,,,,,,,l,1.23151,Incorrect,,,,,,t1.png,t1.png,0,0.97829,19,Female,2020-10-22_21h29.04.780,torte-q,2020.1.3,MacIntel,60,,,,,0,56,56,78,1,,,,,,,,,,,,,,,,,,,,,,,,,,,,,,,,,,,
,,,,,,,,,,,,a,1.188015,Incorrect,,,,,,t5.png,t1.png,4,9.55E-11,19,Female,2020-10-22_21h29.04.780,torte-q,2020.1.3,MacIntel,60,,,,,0,57,57,22,1,,,,,,,,,,,,,,,,,,,,,,,,,,,,,,,,,,,
,,,,,,,,,,,,a,1.05755,Incorrect,,,,,,t3.png,t1.png,2,0.0565,19,Female,2020-10-22_21h29.04.780,torte-q,2020.1.3,MacIntel,60,,,,,0,58,58,31,1,,,,,,,,,,,,,,,,,,,,,,,,,,,,,,,,,,,
,,,,,,,,,,,,,,Too slow :(,,,,,,t1.png,t1.png,0,0.97829,19,Female,2020-10-22_21h29.04.780,torte-q,2020.1.3,MacIntel,60,,,,,0,59,59,67,1,,,,,,,,,,,,,,,,,,,,,,,,,,,,,,,,,,,
,,,,,,,,,,,,a,2.01797,Incorrect,,,,,,t3.png,t1.png,2,0.056466,19,Female,2020-10-22_21h29.04.780,torte-q,2020.1.3,MacIntel,60,,,,,0,60,60,0,1,,,,,,,,,,,,,,,,,,,,,,,,,,,,,,,,,,,
,,,,,,,,,,,,a,1.83725,Correct!,,,,,,t3.png,t2.png,1,0.909,19,Female,2020-10-22_21h29.04.780,torte-q,2020.1.3,MacIntel,60,,,,,0,61,61,23,1,,,,,,,,,,,,,,,,,,,,,,,,,,,,,,,,,,,
,,,,,,,,,,,,a,0.25284,Incorrect,,,,,,t5.png,t3.png,2,0.056466,19,Female,2020-10-22_21h29.04.780,torte-q,2020.1.3,MacIntel,60,,,,,0,62,62,114,1,,,,,,,,,,,,,,,,,,,,,,,,,,,,,,,,,,,
,,,,,,,,,,,,l,0.62387,Incorrect,,,,,,t5.png,t5.png,0,0.978,19,Female,2020-10-22_21h29.04.780,torte-q,2020.1.3,MacIntel,60,,,,,0,63,63,117,1,,,,,,,,,,,,,,,,,,,,,,,,,,,,,,,,,,,
,,,,,,,,,,,,a,1.371,Incorrect,,,,,,t5.png,t3.png,2,0.056466,19,Female,2020-10-22_21h29.04.780,torte-q,2020.1.3,MacIntel,60,,,,,0,64,64,56,1,,,,,,,,,,,,,,,,,,,,,,,,,,,,,,,,,,,
,,,,,,,,,,,,l,1.005685,Incorrect,,,,,,t4.png,t5.png,1,0.90025,19,Female,2020-10-22_21h29.04.780,torte-q,2020.1.3,MacIntel,60,,,,,0,65,65,103,1,,,,,,,,,,,,,,,,,,,,,,,,,,,,,,,,,,,
,,,,,,,,,,,,l,1.083505,Incorrect,,,,,,t2.png,t3.png,1,0.90855,19,Female,2020-10-22_21h29.04.780,torte-q,2020.1.3,MacIntel,60,,,,,0,66,66,68,1,,,,,,,,,,,,,,,,,,,,,,,,,,,,,,,,,,,
,,,,,,,,,,,,l,1.589135,Correct!,,,,,,t5.png,t2.png,3,0.0000131,19,Female,2020-10-22_21h29.04.780,torte-q,2020.1.3,MacIntel,60,,,,,0,67,67,91,1,,,,,,,,,,,,,,,,,,,,,,,,,,,,,,,,,,,
,,,,,,,,,,,,l,1.25226,Incorrect,,,,,,t5.png,t4.png,1,0.90025,19,Female,2020-10-22_21h29.04.780,torte-q,2020.1.3,MacIntel,60,,,,,0,68,68,34,1,,,,,,,,,,,,,,,,,,,,,,,,,,,,,,,,,,,
,,,,,,,,,,,,a,0.851545,Correct!,,,,,,t2.png,t3.png,1,0.909,19,Female,2020-10-22_21h29.04.780,torte-q,2020.1.3,MacIntel,60,,,,,0,69,69,74,1,,,,,,,,,,,,,,,,,,,,,,,,,,,,,,,,,,,
,,,,,,,,,,,,l,1.908325,Correct!,,,,,,t2.png,t4.png,2,0.059078,19,Female,2020-10-22_21h29.04.780,torte-q,2020.1.3,MacIntel,60,,,,,0,70,70,77,1,,,,,,,,,,,,,,,,,,,,,,,,,,,,,,,,,,,
,,,,,,,,,,,,a,1.500535,Incorrect,,,,,,t3.png,t2.png,1,0.90855,19,Female,2020-10-22_21h29.04.780,torte-q,2020.1.3,MacIntel,60,,,,,0,71,71,18,1,,,,,,,,,,,,,,,,,,,,,,,,,,,,,,,,,,,
,,,,,,,,,,,,l,2.08855,Correct!,,,,,,t5.png,t3.png,2,0.056466,19,Female,2020-10-22_21h29.04.780,torte-q,2020.1.3,MacIntel,60,,,,,0,72,72,38,1,,,,,,,,,,,,,,,,,,,,,,,,,,,,,,,,,,,
,,,,,,,,,,,,l,1.750765,Incorrect,,,,,,t4.png,t4.png,0,0.98115,19,Female,2020-10-22_21h29.04.780,torte-q,2020.1.3,MacIntel,60,,,,,0,73,73,80,1,,,,,,,,,,,,,,,,,,,,,,,,,,,,,,,,,,,
,,,,,,,,,,,,l,1.790605,Incorrect,,,,,,t5.png,t5.png,0,0.97829,19,Female,2020-10-22_21h29.04.780,torte-q,2020.1.3,MacIntel,60,,,,,0,74,74,25,1,,,,,,,,,,,,,,,,,,,,,,,,,,,,,,,,,,,
,,,,,,,,,,,,a,1.25048,Incorrect,,,,,,t2.png,t5.png,3,0.0000131,19,Female,2020-10-22_21h29.04.780,torte-q,2020.1.3,MacIntel,60,,,,,0,75,75,95,1,,,,,,,,,,,,,,,,,,,,,,,,,,,,,,,,,,,
,,,,,,,,,,,,a,1.408155,Correct!,,,,,,t2.png,t1.png,1,0.90025,19,Female,2020-10-22_21h29.04.780,torte-q,2020.1.3,MacIntel,60,,,,,0,76,76,4,1,,,,,,,,,,,,,,,,,,,,,,,,,,,,,,,,,,,
,,,,,,,,,,,,a,1.240635,Incorrect,,,,,,t1.png,t4.png,3,0.0000131,19,Female,2020-10-22_21h29.04.780,torte-q,2020.1.3,MacIntel,60,,,,,0,77,77,50,1,,,,,,,,,,,,,,,,,,,,,,,,,,,,,,,,,,,
,,,,,,,,,,,,l,1.142935,Correct!,,,,,,t1.png,t5.png,4,9.55E-11,19,Female,2020-10-22_21h29.04.780,torte-q,2020.1.3,MacIntel,60,,,,,0,78,78,41,1,,,,,,,,,,,,,,,,,,,,,,,,,,,,,,,,,,,
,,,,,,,,,,,,l,1.320215,Correct!,,,,,,t1.png,t3.png,2,0.056466,19,Female,2020-10-22_21h29.04.780,torte-q,2020.1.3,MacIntel,60,,,,,0,79,79,99,1,,,,,,,,,,,,,,,,,,,,,,,,,,,,,,,,,,,
,,,,,,,,,,,,l,1.70173,Correct!,,,,,,t4.png,t2.png,2,0.059078,19,Female,2020-10-22_21h29.04.780,torte-q,2020.1.3,MacIntel,60,,,,,0,80,80,109,1,,,,,,,,,,,,,,,,,,,,,,,,,,,,,,,,,,,
,,,,,,,,,,,,a,1.38695,Correct!,,,,,,t4.png,t3.png,1,0.909,19,Female,2020-10-22_21h29.04.780,torte-q,2020.1.3,MacIntel,60,,,,,0,81,81,46,1,,,,,,,,,,,,,,,,,,,,,,,,,,,,,,,,,,,
,,,,,,,,,,,,a,1.485805,Correct!,,,,,,t4.png,t3.png,1,0.90855,19,Female,2020-10-22_21h29.04.780,torte-q,2020.1.3,MacIntel,60,,,,,0,82,82,75,1,,,,,,,,,,,,,,,,,,,,,,,,,,,,,,,,,,,
,,,,,,,,,,,,l,1.22167,Correct!,,,,,,t3.png,t5.png,2,0.0565,19,Female,2020-10-22_21h29.04.780,torte-q,2020.1.3,MacIntel,60,,,,,0,83,83,30,1,,,,,,,,,,,,,,,,,,,,,,,,,,,,,,,,,,,
,,,,,,,,,,,,l,1.752105,Correct!,,,,,,t1.png,t5.png,4,9.55E-11,19,Female,2020-10-22_21h29.04.780,torte-q,2020.1.3,MacIntel,60,,,,,0,84,84,12,1,,,,,,,,,,,,,,,,,,,,,,,,,,,,,,,,,,,
,,,,,,,,,,,,a,1.36776,Incorrect,,,,,,t1.png,t4.png,3,0.0000131,19,Female,2020-10-22_21h29.04.780,torte-q,2020.1.3,MacIntel,60,,,,,0,85,85,92,1,,,,,,,,,,,,,,,,,,,,,,,,,,,,,,,,,,,
,,,,,,,,,,,,a,2.43708,Incorrect,,,,,,t5.png,t2.png,3,0.0000131,19,Female,2020-10-22_21h29.04.780,torte-q,2020.1.3,MacIntel,60,,,,,0,86,86,116,1,,,,,,,,,,,,,,,,,,,,,,,,,,,,,,,,,,,
,,,,,,,,,,,,a,1.038845,Correct!,,,,,,t1.png,t2.png,1,0.90025,19,Female,2020-10-22_21h29.04.780,torte-q,2020.1.3,MacIntel,60,,,,,0,87,87,33,1,,,,,,,,,,,,,,,,,,,,,,,,,,,,,,,,,,,
,,,,,,,,,,,,l,1.57183,Correct!,,,,,,t3.png,t5.png,2,0.056466,19,Female,2020-10-22_21h29.04.780,torte-q,2020.1.3,MacIntel,60,,,,,0,88,88,44,1,,,,,,,,,,,,,,,,,,,,,,,,,,,,,,,,,,,
,,,,,,,,,,,,l,1.349,Incorrect,,,,,,t3.png,t2.png,1,0.909,19,Female,2020-10-22_21h29.04.780,torte-q,2020.1.3,MacIntel,60,,,,,0,89,89,3,1,,,,,,,,,,,,,,,,,,,,,,,,,,,,,,,,,,,
,,,,,,,,,,,,l,0.88546,Incorrect,,,,,,t4.png,t5.png,1,0.90025,19,Female,2020-10-22_21h29.04.780,torte-q,2020.1.3,MacIntel,60,,,,,0,90,90,47,1,,,,,,,,,,,,,,,,,,,,,,,,,,,,,,,,,,,
,,,,,,,,,,,,l,1.803995,Correct!,,,,,,t3.png,t1.png,2,0.056466,19,Female,2020-10-22_21h29.04.780,torte-q,2020.1.3,MacIntel,60,,,,,0,91,91,32,1,,,,,,,,,,,,,,,,,,,,,,,,,,,,,,,,,,,
,,,,,,,,,,,,l,1.475715,Correct!,,,,,,t5.png,t1.png,4,9.55E-11,19,Female,2020-10-22_21h29.04.780,torte-q,2020.1.3,MacIntel,60,,,,,0,92,92,100,1,,,,,,,,,,,,,,,,,,,,,,,,,,,,,,,,,,,
,,,,,,,,,,,,a,1.122195,Incorrect,,,,,,t5.png,t2.png,3,0.0000131,19,Female,2020-10-22_21h29.04.780,torte-q,2020.1.3,MacIntel,60,,,,,0,93,93,119,1,,,,,,,,,,,,,,,,,,,,,,,,,,,,,,,,,,,
,,,,,,,,,,,,l,1.05229,Incorrect,,,,,,t1.png,t1.png,0,0.978,19,Female,2020-10-22_21h29.04.780,torte-q,2020.1.3,MacIntel,60,,,,,0,94,94,28,1,,,,,,,,,,,,,,,,,,,,,,,,,,,,,,,,,,,
,,,,,,,,,,,,a,1.34151,Incorrect,,,,,,t1.png,t4.png,3,0.0000131,19,Female,2020-10-22_21h29.04.780,torte-q,2020.1.3,MacIntel,60,,,,,0,95,95,107,1,,,,,,,,,,,,,,,,,,,,,,,,,,,,,,,,,,,
,,,,,,,,,,,,a,1.589025,Incorrect,,,,,,t4.png,t1.png,3,0.0000131,19,Female,2020-10-22_21h29.04.780,torte-q,2020.1.3,MacIntel,60,,,,,0,96,96,48,1,,,,,,,,,,,,,,,,,,,,,,,,,,,,,,,,,,,
,,,,,,,,,,,,a,0.334665,Correct!,,,,,,t2.png,t2.png,0,0.981,19,Female,2020-10-22_21h29.04.780,torte-q,2020.1.3,MacIntel,60,,,,,0,97,97,101,1,,,,,,,,,,,,,,,,,,,,,,,,,,,,,,,,,,,
,,,,,,,,,,,,l,0.450815,Correct!,,,,,,t2.png,t4.png,2,0.0591,19,Female,2020-10-22_21h29.04.780,torte-q,2020.1.3,MacIntel,60,,,,,0,98,98,15,1,,,,,,,,,,,,,,,,,,,,,,,,,,,,,,,,,,,
,,,,,,,,,,,,l,0.986285,Incorrect,,,,,,t3.png,t4.png,1,0.90855,19,Female,2020-10-22_21h29.04.780,torte-q,2020.1.3,MacIntel,60,,,,,0,99,99,96,1,,,,,,,,,,,,,,,,,,,,,,,,,,,,,,,,,,,
,,,,,,,,,,,,a,2.218595,Correct!,,,,,,t5.png,t4.png,1,0.9,19,Female,2020-10-22_21h29.04.780,torte-q,2020.1.3,MacIntel,60,,,,,0,100,100,49,1,,,,,,,,,,,,,,,,,,,,,,,,,,,,,,,,,,,
,,,,,,,,,,,,l,1.925045,Incorrect,,,,,,t4.png,t3.png,1,0.90855,19,Female,2020-10-22_21h29.04.780,torte-q,2020.1.3,MacIntel,60,,,,,0,101,101,45,1,,,,,,,,,,,,,,,,,,,,,,,,,,,,,,,,,,,
,,,,,,,,,,,,a,0.88406,Correct!,,,,,,t4.png,t3.png,1,0.90855,19,Female,2020-10-22_21h29.04.780,torte-q,2020.1.3,MacIntel,60,,,,,0,102,102,35,1,,,,,,,,,,,,,,,,,,,,,,,,,,,,,,,,,,,
,,,,,,,,,,,,l,1.118805,Incorrect,,,,,,t1.png,t2.png,1,0.90025,19,Female,2020-10-22_21h29.04.780,torte-q,2020.1.3,MacIntel,60,,,,,0,103,103,72,1,,,,,,,,,,,,,,,,,,,,,,,,,,,,,,,,,,,
,,,,,,,,,,,,a,1.320795,Incorrect,,,,,,t4.png,t1.png,3,0.0000131,19,Female,2020-10-22_21h29.04.780,torte-q,2020.1.3,MacIntel,60,,,,,0,104,104,42,1,,,,,,,,,,,,,,,,,,,,,,,,,,,,,,,,,,,
,,,,,,,,,,,,l,2.40434,Incorrect,,,,,,t2.png,t1.png,1,0.90025,19,Female,2020-10-22_21h29.04.780,torte-q,2020.1.3,MacIntel,60,,,,,0,105,105,62,1,,,,,,,,,,,,,,,,,,,,,,,,,,,,,,,,,,,
,,,,,,,,,,,,l,1.167725,Correct!,,,,,,t2.png,t4.png,2,0.059078,19,Female,2020-10-22_21h29.04.780,torte-q,2020.1.3,MacIntel,60,,,,,0,106,106,11,1,,,,,,,,,,,,,,,,,,,,,,,,,,,,,,,,,,,
,,,,,,,,,,,,,,Too slow :(,,,,,,t1.png,t2.png,1,0.90025,19,Female,2020-10-22_21h29.04.780,torte-q,2020.1.3,MacIntel,60,,,,,0,107,107,112,1,,,,,,,,,,,,,,,,,,,,,,,,,,,,,,,,,,,
,,,,,,,,,,,,a,1.17795,Correct!,,,,,,t4.png,t4.png,0,0.98115,19,Female,2020-10-22_21h29.04.780,torte-q,2020.1.3,MacIntel,60,,,,,0,108,108,21,1,,,,,,,,,,,,,,,,,,,,,,,,,,,,,,,,,,,
,,,,,,,,,,,,l,1.151465,Correct!,,,,,,t5.png,t3.png,2,0.056466,19,Female,2020-10-22_21h29.04.780,torte-q,2020.1.3,MacIntel,60,,,,,0,109,109,108,1,,,,,,,,,,,,,,,,,,,,,,,,,,,,,,,,,,,
,,,,,,,,,,,,a,1.250485,Correct!,,,,,,t5.png,t5.png,0,0.97829,19,Female,2020-10-22_21h29.04.780,torte-q,2020.1.3,MacIntel,60,,,,,0,110,110,70,1,,,,,,,,,,,,,,,,,,,,,,,,,,,,,,,,,,,
,,,,,,,,,,,,a,1.887765,Correct!,,,,,,t1.png,t1.png,0,0.97829,19,Female,2020-10-22_21h29.04.780,torte-q,2020.1.3,MacIntel,60,,,,,0,111,111,9,1,,,,,,,,,,,,,,,,,,,,,,,,,,,,,,,,,,,
,,,,,,,,,,,,a,2.023545,Correct!,,,,,,t3.png,t4.png,1,0.909,19,Female,2020-10-22_21h29.04.780,torte-q,2020.1.3,MacIntel,60,,,,,0,112,112,106,1,,,,,,,,,,,,,,,,,,,,,,,,,,,,,,,,,,,
,,,,,,,,,,,,l,0.952845,Correct!,,,,,,t1.png,t3.png,2,0.056466,19,Female,2020-10-22_21h29.04.780,torte-q,2020.1.3,MacIntel,60,,,,,0,113,113,60,1,,,,,,,,,,,,,,,,,,,,,,,,,,,,,,,,,,,
,,,,,,,,,,,,,,Too slow :(,,,,,,t2.png,t2.png,0,0.98115,19,Female,2020-10-22_21h29.04.780,torte-q,2020.1.3,MacIntel,60,,,,,0,114,114,57,1,,,,,,,,,,,,,,,,,,,,,,,,,,,,,,,,,,,
,,,,,,,,,,,,a,0.10061,Incorrect,,,,,,t5.png,t2.png,3,0.0000131,19,Female,2020-10-22_21h29.04.780,torte-q,2020.1.3,MacIntel,60,,,,,0,115,115,98,1,,,,,,,,,,,,,,,,,,,,,,,,,,,,,,,,,,,
,,,,,,,,,,,,a,0.851855,Correct!,,,,,,t5.png,t4.png,1,0.9,19,Female,2020-10-22_21h29.04.780,torte-q,2020.1.3,MacIntel,60,,,,,0,116,116,76,1,,,,,,,,,,,,,,,,,,,,,,,,,,,,,,,,,,,
,,,,,,,,,,,,a,2.07404,Correct!,,,,,,t3.png,t2.png,1,0.90855,19,Female,2020-10-22_21h29.04.780,torte-q,2020.1.3,MacIntel,60,,,,,0,117,117,53,1,,,,,,,,,,,,,,,,,,,,,,,,,,,,,,,,,,,
,,,,,,,,,,,,l,1.500695,Correct!,,,,,,t1.png,t3.png,2,0.056466,19,Female,2020-10-22_21h29.04.780,torte-q,2020.1.3,MacIntel,60,,,,,0,118,118,87,1,,,,,,,,,,,,,,,,,,,,,,,,,,,,,,,,,,,
,,,,,,,,,,,,l,1.3724,Incorrect,,,,,,t4.png,t5.png,1,0.90025,19,Female,2020-10-22_21h29.04.780,torte-q,2020.1.3,MacIntel,60,,,,,0,119,119,58,1,,,,,,,,,,,,,,,,,,,,,,,,,,,,,,,,,,,
,,,,,,,,,,,,l,2.206205,Correct!,,,,,,t5.png,t3.png,2,0.056466,19,Female,2020-10-22_21h29.04.780,torte-q,2020.1.3,MacIntel,60,space,1.639315,,,,,,,,space,11.08703,space,236.607795,0,0,0,108,1,,,,,,,,,,,,,,,,,,,,,,,,,,
,,,,,,,,,,,,a,1.684525,Incorrect,,,,,,t2.png,t3.png,1,0.90855,19,Female,2020-10-22_21h29.04.780,torte-q,2020.1.3,MacIntel,60,,,,,,,,,,,,,,0,1,1,68,1,,,,,,,,,,,,,,,,,,,,,,,,,,
,,,,,,,,,,,,a,1.45609,Incorrect,,,,,,t5.png,t3.png,2,0.056466,19,Female,2020-10-22_21h29.04.780,torte-q,2020.1.3,MacIntel,60,,,,,,,,,,,,,,0,2,2,114,1,,,,,,,,,,,,,,,,,,,,,,,,,,
,,,,,,,,,,,,a,1.78796,Correct!,,,,,,t5.png,t4.png,1,0.9,19,Female,2020-10-22_21h29.04.780,torte-q,2020.1.3,MacIntel,60,,,,,,,,,,,,,,0,3,3,49,1,,,,,,,,,,,,,,,,,,,,,,,,,,
,,,,,,,,,,,,l,1.422115,Incorrect,,,,,,t3.png,t2.png,1,0.90855,19,Female,2020-10-22_21h29.04.780,torte-q,2020.1.3,MacIntel,60,,,,,,,,,,,,,,0,4,4,53,1,,,,,,,,,,,,,,,,,,,,,,,,,,
,,,,,,,,,,,,l,0.920015,Correct!,,,,,,t1.png,t3.png,2,0.056466,19,Female,2020-10-22_21h29.04.780,torte-q,2020.1.3,MacIntel,60,,,,,,,,,,,,,,0,5,5,69,1,,,,,,,,,,,,,,,,,,,,,,,,,,
,,,,,,,,,,,,a,0.91792,Incorrect,,,,,,t4.png,t2.png,2,0.059078,19,Female,2020-10-22_21h29.04.780,torte-q,2020.1.3,MacIntel,60,,,,,,,,,,,,,,0,6,6,86,1,,,,,,,,,,,,,,,,,,,,,,,,,,
,,,,,,,,,,,,l,0.618315,Correct!,,,,,,t3.png,t5.png,2,0.0565,19,Female,2020-10-22_21h29.04.780,torte-q,2020.1.3,MacIntel,60,,,,,,,,,,,,,,0,7,7,83,1,,,,,,,,,,,,,,,,,,,,,,,,,,
,,,,,,,,,,,,a,1.6332,Correct!,,,,,,t4.png,t4.png,0,0.98115,19,Female,2020-10-22_21h29.04.780,torte-q,2020.1.3,MacIntel,60,,,,,,,,,,,,,,0,8,8,21,1,,,,,,,,,,,,,,,,,,,,,,,,,,
,,,,,,,,,,,,l,2.14238,Correct!,,,,,,t5.png,t1.png,4,9.55E-11,19,Female,2020-10-22_21h29.04.780,torte-q,2020.1.3,MacIntel,60,,,,,,,,,,,,,,0,9,9,100,1,,,,,,,,,,,,,,,,,,,,,,,,,,
,,,,,,,,,,,,a,1.0546,Correct!,,,,,,t1.png,t2.png,1,0.90025,19,Female,2020-10-22_21h29.04.780,torte-q,2020.1.3,MacIntel,60,,,,,,,,,,,,,,0,10,10,105,1,,,,,,,,,,,,,,,,,,,,,,,,,,
,,,,,,,,,,,,a,0.93336,Correct!,,,,,,t2.png,t1.png,1,0.90025,19,Female,2020-10-22_21h29.04.780,torte-q,2020.1.3,MacIntel,60,,,,,,,,,,,,,,0,11,11,19,1,,,,,,,,,,,,,,,,,,,,,,,,,,
,,,,,,,,,,,,l,0.83829,Correct!,,,,,,t3.png,t5.png,2,0.056466,19,Female,2020-10-22_21h29.04.780,torte-q,2020.1.3,MacIntel,60,,,,,,,,,,,,,,0,12,12,14,1,,,,,,,,,,,,,,,,,,,,,,,,,,
,,,,,,,,,,,,l,0.919945,Correct!,,,,,,t2.png,t5.png,3,0.0000131,19,Female,2020-10-22_21h29.04.780,torte-q,2020.1.3,MacIntel,60,,,,,,,,,,,,,,0,13,13,8,1,,,,,,,,,,,,,,,,,,,,,,,,,,
,,,,,,,,,,,,l,0.73582,Correct!,,,,,,t5.png,t3.png,2,0.056466,19,Female,2020-10-22_21h29.04.780,torte-q,2020.1.3,MacIntel,60,,,,,,,,,,,,,,0,14,14,38,1,,,,,,,,,,,,,,,,,,,,,,,,,,
,,,,,,,,,,,,a,0.903725,Correct!,,,,,,t4.png,t3.png,1,0.909,19,Female,2020-10-22_21h29.04.780,torte-q,2020.1.3,MacIntel,60,,,,,,,,,,,,,,0,15,15,20,1,,,,,,,,,,,,,,,,,,,,,,,,,,
,,,,,,,,,,,,a,1.192015,Incorrect,,,,,,t1.png,t5.png,4,9.55E-11,19,Female,2020-10-22_21h29.04.780,torte-q,2020.1.3,MacIntel,60,,,,,,,,,,,,,,0,16,16,12,1,,,,,,,,,,,,,,,,,,,,,,,,,,
,,,,,,,,,,,,l,0.98532,Incorrect,,,,,,t4.png,t4.png,0,0.98115,19,Female,2020-10-22_21h29.04.780,torte-q,2020.1.3,MacIntel,60,,,,,,,,,,,,,,0,17,17,52,1,,,,,,,,,,,,,,,,,,,,,,,,,,
,,,,,,,,,,,,l,0.60293,Correct!,,,,,,t1.png,t3.png,2,0.056466,19,Female,2020-10-22_21h29.04.780,torte-q,2020.1.3,MacIntel,60,,,,,,,,,,,,,,0,18,18,63,1,,,,,,,,,,,,,,,,,,,,,,,,,,
,,,,,,,,,,,,l,1.03995,Correct!,,,,,,t4.png,t4.png,0,0.98115,19,Female,2020-10-22_21h29.04.780,torte-q,2020.1.3,MacIntel,60,,,,,,,,,,,,,,0,19,19,79,1,,,,,,,,,,,,,,,,,,,,,,,,,,
,,,,,,,,,,,,a,1.29086,Incorrect,,,,,,t5.png,t2.png,3,0.0000131,19,Female,2020-10-22_21h29.04.780,torte-q,2020.1.3,MacIntel,60,,,,,,,,,,,,,,0,20,20,98,1,,,,,,,,,,,,,,,,,,,,,,,,,,
,,,,,,,,,,,,l,1.05498,Correct!,,,,,,t2.png,t4.png,2,0.0591,19,Female,2020-10-22_21h29.04.780,torte-q,2020.1.3,MacIntel,60,,,,,,,,,,,,,,0,21,21,15,1,,,,,,,,,,,,,,,,,,,,,,,,,,
,,,,,,,,,,,,a,1.93425,Incorrect,,,,,,t1.png,t4.png,3,0.0000131,19,Female,2020-10-22_21h29.04.780,torte-q,2020.1.3,MacIntel,60,,,,,,,,,,,,,,0,22,22,50,1,,,,,,,,,,,,,,,,,,,,,,,,,,
,,,,,,,,,,,,l,1.237365,Incorrect,,,,,,t2.png,t3.png,1,0.90855,19,Female,2020-10-22_21h29.04.780,torte-q,2020.1.3,MacIntel,60,,,,,,,,,,,,,,0,23,23,10,1,,,,,,,,,,,,,,,,,,,,,,,,,,
,,,,,,,,,,,,l,1.11954,Incorrect,,,,,,t2.png,t2.png,0,0.98115,19,Female,2020-10-22_21h29.04.780,torte-q,2020.1.3,MacIntel,60,,,,,,,,,,,,,,0,24,24,2,1,,,,,,,,,,,,,,,,,,,,,,,,,,
,,,,,,,,,,,,a,1.64886,Correct!,,,,,,t3.png,t4.png,1,0.90855,19,Female,2020-10-22_21h29.04.780,torte-q,2020.1.3,MacIntel,60,,,,,,,,,,,,,,0,25,25,84,1,,,,,,,,,,,,,,,,,,,,,,,,,,
,,,,,,,,,,,,a,1.06789,Incorrect,,,,,,t4.png,t1.png,3,0.0000131,19,Female,2020-10-22_21h29.04.780,torte-q,2020.1.3,MacIntel,60,,,,,,,,,,,,,,0,26,26,48,1,,,,,,,,,,,,,,,,,,,,,,,,,,
,,,,,,,,,,,,a,1.455575,Incorrect,,,,,,t5.png,t3.png,2,0.0565,19,Female,2020-10-22_21h29.04.780,torte-q,2020.1.3,MacIntel,60,,,,,,,,,,,,,,0,27,27,39,1,,,,,,,,,,,,,,,,,,,,,,,,,,
,,,,,,,,,,,,a,0.97291,Correct!,,,,,,t1.png,t1.png,0,0.97829,19,Female,2020-10-22_21h29.04.780,torte-q,2020.1.3,MacIntel,60,,,,,,,,,,,,,,0,28,28,67,1,,,,,,,,,,,,,,,,,,,,,,,,,,
,,,,,,,,,,,,a,1.15464,Correct!,,,,,,t5.png,t4.png,1,0.90025,19,Female,2020-10-22_21h29.04.780,torte-q,2020.1.3,MacIntel,60,,,,,,,,,,,,,,0,29,29,27,1,,,,,,,,,,,,,,,,,,,,,,,,,,
,,,,,,,,,,,,l,1.30255,Correct!,,,,,,t4.png,t1.png,3,0.0000131,19,Female,2020-10-22_21h29.04.780,torte-q,2020.1.3,MacIntel,60,,,,,,,,,,,,,,0,30,30,13,1,,,,,,,,,,,,,,,,,,,,,,,,,,
,,,,,,,,,,,,a,0.8522,Correct!,,,,,,t5.png,t3.png,2,0.056466,19,Female,2020-10-22_21h29.04.780,torte-q,2020.1.3,MacIntel,60,,,,,,,,,,,,,,0,31,31,56,1,,,,,,,,,,,,,,,,,,,,,,,,,,
,,,,,,,,,,,,l,1.802035,Incorrect,,,,,,t2.png,t2.png,0,0.98115,19,Female,2020-10-22_21h29.04.780,torte-q,2020.1.3,MacIntel,60,,,,,,,,,,,,,,0,32,32,57,1,,,,,,,,,,,,,,,,,,,,,,,,,,
,,,,,,,,,,,,a,1.1723,Correct!,,,,,,t2.png,t3.png,1,0.90855,19,Female,2020-10-22_21h29.04.780,torte-q,2020.1.3,MacIntel,60,,,,,,,,,,,,,,0,33,33,111,1,,,,,,,,,,,,,,,,,,,,,,,,,,
,,,,,,,,,,,,a,1.1677,Incorrect,,,,,,t4.png,t2.png,2,0.059078,19,Female,2020-10-22_21h29.04.780,torte-q,2020.1.3,MacIntel,60,,,,,,,,,,,,,,0,34,34,109,1,,,,,,,,,,,,,,,,,,,,,,,,,,
,,,,,,,,,,,,l,1.149855,Correct!,,,,,,t4.png,t1.png,3,0.0000131,19,Female,2020-10-22_21h29.04.780,torte-q,2020.1.3,MacIntel,60,,,,,,,,,,,,,,0,35,35,93,1,,,,,,,,,,,,,,,,,,,,,,,,,,
,,,,,,,,,,,,l,1.40329,Correct!,,,,,,t5.png,t2.png,3,0.0000131,19,Female,2020-10-22_21h29.04.780,torte-q,2020.1.3,MacIntel,60,,,,,,,,,,,,,,0,36,36,91,1,,,,,,,,,,,,,,,,,,,,,,,,,,
,,,,,,,,,,,,l,1.752465,Incorrect,,,,,,t2.png,t2.png,0,0.981,19,Female,2020-10-22_21h29.04.780,torte-q,2020.1.3,MacIntel,60,,,,,,,,,,,,,,0,37,37,101,1,,,,,,,,,,,,,,,,,,,,,,,,,,
,,,,,,,,,,,,a,1.39502,Incorrect,,,,,,t2.png,t4.png,2,0.059078,19,Female,2020-10-22_21h29.04.780,torte-q,2020.1.3,MacIntel,60,,,,,,,,,,,,,,0,38,38,37,1,,,,,,,,,,,,,,,,,,,,,,,,,,
,,,,,,,,,,,,a,1.24035,Correct!,,,,,,t3.png,t4.png,1,0.90855,19,Female,2020-10-22_21h29.04.780,torte-q,2020.1.3,MacIntel,60,,,,,,,,,,,,,,0,39,39,96,1,,,,,,,,,,,,,,,,,,,,,,,,,,
,,,,,,,,,,,,a,0.90666,Incorrect,,,,,,t5.png,t2.png,3,0.0000131,19,Female,2020-10-22_21h29.04.780,torte-q,2020.1.3,MacIntel,60,,,,,,,,,,,,,,0,40,40,51,1,,,,,,,,,,,,,,,,,,,,,,,,,,
,,,,,,,,,,,,a,0.9697,Correct!,,,,,,t2.png,t2.png,0,0.98115,19,Female,2020-10-22_21h29.04.780,torte-q,2020.1.3,MacIntel,60,,,,,,,,,,,,,,0,41,41,7,1,,,,,,,,,,,,,,,,,,,,,,,,,,
,,,,,,,,,,,,a,0.75775,Correct!,,,,,,t1.png,t1.png,0,0.978,19,Female,2020-10-22_21h29.04.780,torte-q,2020.1.3,MacIntel,60,,,,,,,,,,,,,,0,42,42,54,1,,,,,,,,,,,,,,,,,,,,,,,,,,
,,,,,,,,,,,,l,1.83863,Incorrect,,,,,,t2.png,t4.png,2,0.059078,19,Female,2020-10-22_21h29.04.780,torte-q,2020.1.3,MacIntel,60,,,,,,,,,,,,,,0,43,43,24,1,,,,,,,,,,,,,,,,,,,,,,,,,,
,,,,,,,,,,,,a,1.71799,Incorrect,,,,,,t5.png,t1.png,4,9.55E-11,19,Female,2020-10-22_21h29.04.780,torte-q,2020.1.3,MacIntel,60,,,,,,,,,,,,,,0,44,44,43,1,,,,,,,,,,,,,,,,,,,,,,,,,,
,,,,,,,,,,,,a,1.350475,Correct!,,,,,,t1.png,t1.png,0,0.978,19,Female,2020-10-22_21h29.04.780,torte-q,2020.1.3,MacIntel,60,,,,,,,,,,,,,,0,45,45,28,1,,,,,,,,,,,,,,,,,,,,,,,,,,
,,,,,,,,,,,,a,1.635895,Incorrect,,,,,,t1.png,t4.png,3,0.0000131,19,Female,2020-10-22_21h29.04.780,torte-q,2020.1.3,MacIntel,60,,,,,,,,,,,,,,0,46,46,92,1,,,,,,,,,,,,,,,,,,,,,,,,,,
,,,,,,,,,,,,a,2.201305,Correct!,,,,,,t4.png,t3.png,1,0.909,19,Female,2020-10-22_21h29.04.780,torte-q,2020.1.3,MacIntel,60,,,,,,,,,,,,,,0,47,47,46,1,,,,,,,,,,,,,,,,,,,,,,,,,,
,,,,,,,,,,,,l,1.305035,Incorrect,,,,,,t5.png,t5.png,0,0.97829,19,Female,2020-10-22_21h29.04.780,torte-q,2020.1.3,MacIntel,60,,,,,,,,,,,,,,0,48,48,25,1,,,,,,,,,,,,,,,,,,,,,,,,,,
,,,,,,,,,,,,l,1.735325,Correct!,,,,,,t1.png,t2.png,1,0.90025,19,Female,2020-10-22_21h29.04.780,torte-q,2020.1.3,MacIntel,60,,,,,,,,,,,,,,0,49,49,72,1,,,,,,,,,,,,,,,,,,,,,,,,,,
,,,,,,,,,,,,l,0.752455,Incorrect,,,,,,t4.png,t4.png,0,0.98115,19,Female,2020-10-22_21h29.04.780,torte-q,2020.1.3,MacIntel,60,,,,,,,,,,,,,,0,50,50,90,1,,,,,,,,,,,,,,,,,,,,,,,,,,
,,,,,,,,,,,,a,1.36961,Correct!,,,,,,t2.png,t3.png,1,0.90855,19,Female,2020-10-22_21h29.04.780,torte-q,2020.1.3,MacIntel,60,,,,,,,,,,,,,,0,51,51,65,1,,,,,,,,,,,,,,,,,,,,,,,,,,
,,,,,,,,,,,,a,1.184785,Correct!,,,,,,t3.png,t2.png,1,0.90855,19,Female,2020-10-22_21h29.04.780,torte-q,2020.1.3,MacIntel,60,,,,,,,,,,,,,,0,52,52,18,1,,,,,,,,,,,,,,,,,,,,,,,,,,
,,,,,,,,,,,,l,0.925695,Incorrect,,,,,,t4.png,t4.png,0,0.98115,19,Female,2020-10-22_21h29.04.780,torte-q,2020.1.3,MacIntel,60,,,,,,,,,,,,,,0,53,53,80,1,,,,,,,,,,,,,,,,,,,,,,,,,,
,,,,,,,,,,,,a,0.95017,Incorrect,,,,,,t5.png,t2.png,3,0.0000131,19,Female,2020-10-22_21h29.04.780,torte-q,2020.1.3,MacIntel,60,,,,,,,,,,,,,,0,54,54,116,1,,,,,,,,,,,,,,,,,,,,,,,,,,
,,,,,,,,,,,,l,1.1004,Incorrect,,,,,,t1.png,t2.png,1,0.90025,19,Female,2020-10-22_21h29.04.780,torte-q,2020.1.3,MacIntel,60,,,,,,,,,,,,,,0,55,55,33,1,,,,,,,,,,,,,,,,,,,,,,,,,,
,,,,,,,,,,,,a,1.186075,Correct!,,,,,,t1.png,t1.png,0,0.97829,19,Female,2020-10-22_21h29.04.780,torte-q,2020.1.3,MacIntel,60,,,,,,,,,,,,,,0,56,56,78,1,,,,,,,,,,,,,,,,,,,,,,,,,,
,,,,,,,,,,,,a,1.22606,Incorrect,,,,,,t5.png,t1.png,4,9.55E-11,19,Female,2020-10-22_21h29.04.780,torte-q,2020.1.3,MacIntel,60,,,,,,,,,,,,,,0,57,57,71,1,,,,,,,,,,,,,,,,,,,,,,,,,,
,,,,,,,,,,,,a,1.24388,Correct!,,,,,,t5.png,t4.png,1,0.90025,19,Female,2020-10-22_21h29.04.780,torte-q,2020.1.3,MacIntel,60,,,,,,,,,,,,,,0,58,58,34,1,,,,,,,,,,,,,,,,,,,,,,,,,,
,,,,,,,,,,,,l,0.817845,Incorrect,,,,,,t1.png,t3.png,2,0.056466,19,Female,2020-10-22_21h29.04.780,torte-q,2020.1.3,MacIntel,60,,,,,,,,,,,,,,0,59,59,87,1,,,,,,,,,,,,,,,,,,,,,,,,,,
,,,,,,,,,,,,a,1.151795,Correct!,,,,,,t3.png,t2.png,1,0.909,19,Female,2020-10-22_21h29.04.780,torte-q,2020.1.3,MacIntel,60,,,,,,,,,,,,,,0,60,60,3,1,,,,,,,,,,,,,,,,,,,,,,,,,,
,,,,,,,,,,,,a,0.938245,Correct!,,,,,,t4.png,t3.png,1,0.90855,19,Female,2020-10-22_21h29.04.780,torte-q,2020.1.3,MacIntel,60,,,,,,,,,,,,,,0,61,61,75,1,,,,,,,,,,,,,,,,,,,,,,,,,,
,,,,,,,,,,,,l,0.92103,Incorrect,,,,,,t4.png,t5.png,1,0.90025,19,Female,2020-10-22_21h29.04.780,torte-q,2020.1.3,MacIntel,60,,,,,,,,,,,,,,0,62,62,47,1,,,,,,,,,,,,,,,,,,,,,,,,,,
,,,,,,,,,,,,a,1.13782,Correct!,,,,,,t4.png,t2.png,2,0.059078,19,Female,2020-10-22_21h29.04.780,torte-q,2020.1.3,MacIntel,60,,,,,,,,,,,,,,0,63,63,88,1,,,,,,,,,,,,,,,,,,,,,,,,,,
,,,,,,,,,,,,l,1.13927,Incorrect,,,,,,t5.png,t5.png,0,0.97829,19,Female,2020-10-22_21h29.04.780,torte-q,2020.1.3,MacIntel,60,,,,,,,,,,,,,,0,64,64,73,1,,,,,,,,,,,,,,,,,,,,,,,,,,
,,,,,,,,,,,,a,1.50553,Incorrect,,,,,,t4.png,t2.png,2,0.0591,19,Female,2020-10-22_21h29.04.780,torte-q,2020.1.3,MacIntel,60,,,,,,,,,,,,,,0,65,65,36,1,,,,,,,,,,,,,,,,,,,,,,,,,,
,,,,,,,,,,,,a,1.451695,Correct!,,,,,,t5.png,t5.png,0,0.97829,19,Female,2020-10-22_21h29.04.780,torte-q,2020.1.3,MacIntel,60,,,,,,,,,,,,,,0,66,66,70,1,,,,,,,,,,,,,,,,,,,,,,,,,,
,,,,,,,,,,,,l,1.367005,Incorrect,,,,,,t2.png,t2.png,0,0.98115,19,Female,2020-10-22_21h29.04.780,torte-q,2020.1.3,MacIntel,60,,,,,,,,,,,,,,0,67,67,59,1,,,,,,,,,,,,,,,,,,,,,,,,,,
,,,,,,,,,,,,a,1.63996,Correct!,,,,,,t2.png,t1.png,1,0.90025,19,Female,2020-10-22_21h29.04.780,torte-q,2020.1.3,MacIntel,60,,,,,,,,,,,,,,0,68,68,4,1,,,,,,,,,,,,,,,,,,,,,,,,,,
,,,,,,,,,,,,,,Too slow :(,,,,,,t2.png,t4.png,2,0.059078,19,Female,2020-10-22_21h29.04.780,torte-q,2020.1.3,MacIntel,60,,,,,,,,,,,,,,0,69,69,11,1,,,,,,,,,,,,,,,,,,,,,,,,,,
,,,,,,,,,,,,a,1.62727,Incorrect,,,,,,t1.png,t5.png,4,9.55E-11,19,Female,2020-10-22_21h29.04.780,torte-q,2020.1.3,MacIntel,60,,,,,,,,,,,,,,0,70,70,55,1,,,,,,,,,,,,,,,,,,,,,,,,,,
,,,,,,,,,,,,a,2.088175,Incorrect,,,,,,t3.png,t1.png,2,0.0565,19,Female,2020-10-22_21h29.04.780,torte-q,2020.1.3,MacIntel,60,,,,,,,,,,,,,,0,71,71,31,1,,,,,,,,,,,,,,,,,,,,,,,,,,
,,,,,,,,,,,,l,1.61664,Correct!,,,,,,t4.png,t2.png,2,0.059078,19,Female,2020-10-22_21h29.04.780,torte-q,2020.1.3,MacIntel,60,,,,,,,,,,,,,,0,72,72,110,1,,,,,,,,,,,,,,,,,,,,,,,,,,
,,,,,,,,,,,,a,1.489125,Incorrect,,,,,,t1.png,t4.png,3,0.0000131,19,Female,2020-10-22_21h29.04.780,torte-q,2020.1.3,MacIntel,60,,,,,,,,,,,,,,0,73,73,17,1,,,,,,,,,,,,,,,,,,,,,,,,,,
,,,,,,,,,,,,l,1.70175,Incorrect,,,,,,t5.png,t4.png,1,0.9,19,Female,2020-10-22_21h29.04.780,torte-q,2020.1.3,MacIntel,60,,,,,,,,,,,,,,0,74,74,76,1,,,,,,,,,,,,,,,,,,,,,,,,,,
,,,,,,,,,,,,a,1.20331,Correct!,,,,,,t1.png,t1.png,0,0.97829,19,Female,2020-10-22_21h29.04.780,torte-q,2020.1.3,MacIntel,60,,,,,,,,,,,,,,0,75,75,9,1,,,,,,,,,,,,,,,,,,,,,,,,,,
,,,,,,,,,,,,a,1.453575,Incorrect,,,,,,t1.png,t5.png,4,9.55E-11,19,Female,2020-10-22_21h29.04.780,torte-q,2020.1.3,MacIntel,60,,,,,,,,,,,,,,0,76,76,41,1,,,,,,,,,,,,,,,,,,,,,,,,,,
,,,,,,,,,,,,l,1.142655,Correct!,,,,,,t5.png,t1.png,4,9.55E-11,19,Female,2020-10-22_21h29.04.780,torte-q,2020.1.3,MacIntel,60,,,,,,,,,,,,,,0,77,77,22,1,,,,,,,,,,,,,,,,,,,,,,,,,,
,,,,,,,,,,,,a,1.028275,Correct!,,,,,,t2.png,t3.png,1,0.909,19,Female,2020-10-22_21h29.04.780,torte-q,2020.1.3,MacIntel,60,,,,,,,,,,,,,,0,78,78,74,1,,,,,,,,,,,,,,,,,,,,,,,,,,
,,,,,,,,,,,,a,1.431785,Correct!,,,,,,t4.png,t5.png,1,0.90025,19,Female,2020-10-22_21h29.04.780,torte-q,2020.1.3,MacIntel,60,,,,,,,,,,,,,,0,79,79,103,1,,,,,,,,,,,,,,,,,,,,,,,,,,
,,,,,,,,,,,,a,1.47725,Correct!,,,,,,t1.png,t2.png,1,0.9,19,Female,2020-10-22_21h29.04.780,torte-q,2020.1.3,MacIntel,60,,,,,,,,,,,,,,0,80,80,1,1,,,,,,,,,,,,,,,,,,,,,,,,,,
,,,,,,,,,,,,l,1.64373,Correct!,,,,,,t5.png,t2.png,3,0.0000131,19,Female,2020-10-22_21h29.04.780,torte-q,2020.1.3,MacIntel,60,,,,,,,,,,,,,,0,81,81,119,1,,,,,,,,,,,,,,,,,,,,,,,,,,
,,,,,,,,,,,,a,1.13711,Correct!,,,,,,t2.png,t1.png,1,0.90025,19,Female,2020-10-22_21h29.04.780,torte-q,2020.1.3,MacIntel,60,,,,,,,,,,,,,,0,82,82,62,1,,,,,,,,,,,,,,,,,,,,,,,,,,
,,,,,,,,,,,,l,1.112565,Incorrect,,,,,,t4.png,t3.png,1,0.90855,19,Female,2020-10-22_21h29.04.780,torte-q,2020.1.3,MacIntel,60,,,,,,,,,,,,,,0,83,83,45,1,,,,,,,,,,,,,,,,,,,,,,,,,,
,,,,,,,,,,,,a,1.021165,Incorrect,,,,,,t4.png,t1.png,3,0.0000131,19,Female,2020-10-22_21h29.04.780,torte-q,2020.1.3,MacIntel,60,,,,,,,,,,,,,,0,84,84,42,1,,,,,,,,,,,,,,,,,,,,,,,,,,
,,,,,,,,,,,,l,1.05372,Incorrect,,,,,,t5.png,t5.png,0,0.97829,19,Female,2020-10-22_21h29.04.780,torte-q,2020.1.3,MacIntel,60,,,,,,,,,,,,,,0,85,85,94,1,,,,,,,,,,,,,,,,,,,,,,,,,,
,,,,,,,,,,,,a,0.718575,Correct!,,,,,,t3.png,t4.png,1,0.909,19,Female,2020-10-22_21h29.04.780,torte-q,2020.1.3,MacIntel,60,,,,,,,,,,,,,,0,86,86,82,1,,,,,,,,,,,,,,,,,,,,,,,,,,
,,,,,,,,,,,,a,1.16889,Incorrect,,,,,,t3.png,t1.png,2,0.056466,19,Female,2020-10-22_21h29.04.780,torte-q,2020.1.3,MacIntel,60,,,,,,,,,,,,,,0,87,87,32,1,,,,,,,,,,,,,,,,,,,,,,,,,,
,,,,,,,,,,,,l,1.15594,Correct!,,,,,,t4.png,t5.png,1,0.90025,19,Female,2020-10-22_21h29.04.780,torte-q,2020.1.3,MacIntel,60,,,,,,,,,,,,,,0,88,88,113,1,,,,,,,,,,,,,,,,,,,,,,,,,,
,,,,,,,,,,,,a,0.53548,Correct!,,,,,,t4.png,t3.png,1,0.90855,19,Female,2020-10-22_21h29.04.780,torte-q,2020.1.3,MacIntel,60,,,,,,,,,,,,,,0,89,89,35,1,,,,,,,,,,,,,,,,,,,,,,,,,,
,,,,,,,,,,,,l,1.283565,Incorrect,,,,,,t3.png,t4.png,1,0.909,19,Female,2020-10-22_21h29.04.780,torte-q,2020.1.3,MacIntel,60,,,,,,,,,,,,,,0,90,90,106,1,,,,,,,,,,,,,,,,,,,,,,,,,,
,,,,,,,,,,,,a,2.42488,Incorrect,,,,,,t2.png,t5.png,3,0.0000131,19,Female,2020-10-22_21h29.04.780,torte-q,2020.1.3,MacIntel,60,,,,,,,,,,,,,,0,91,91,104,1,,,,,,,,,,,,,,,,,,,,,,,,,,
,,,,,,,,,,,,a,1.73785,Correct!,,,,,,t3.png,t2.png,1,0.90855,19,Female,2020-10-22_21h29.04.780,torte-q,2020.1.3,MacIntel,60,,,,,,,,,,,,,,0,92,92,97,1,,,,,,,,,,,,,,,,,,,,,,,,,,
,,,,,,,,,,,,,,Too slow :(,,,,,,t3.png,t1.png,2,0.056466,19,Female,2020-10-22_21h29.04.780,torte-q,2020.1.3,MacIntel,60,,,,,,,,,,,,,,0,93,93,29,1,,,,,,,,,,,,,,,,,,,,,,,,,,
,,,,,,,,,,,,a,0.34054,Incorrect,,,,,,t3.png,t1.png,2,0.056466,19,Female,2020-10-22_21h29.04.780,torte-q,2020.1.3,MacIntel,60,,,,,,,,,,,,,,0,94,94,0,1,,,,,,,,,,,,,,,,,,,,,,,,,,
,,,,,,,,,,,,l,2.33869,Correct!,,,,,,t2.png,t5.png,3,0.0000131,19,Female,2020-10-22_21h29.04.780,torte-q,2020.1.3,MacIntel,60,,,,,,,,,,,,,,0,95,95,95,1,,,,,,,,,,,,,,,,,,,,,,,,,,
,,,,,,,,,,,,l,1.538265,Incorrect,,,,,,t4.png,t5.png,1,0.9,19,Female,2020-10-22_21h29.04.780,torte-q,2020.1.3,MacIntel,60,,,,,,,,,,,,,,0,96,96,115,1,,,,,,,,,,,,,,,,,,,,,,,,,,
,,,,,,,,,,,,a,1.368145,Correct!,,,,,,t1.png,t2.png,1,0.90025,19,Female,2020-10-22_21h29.04.780,torte-q,2020.1.3,MacIntel,60,,,,,,,,,,,,,,0,97,97,112,1,,,,,,,,,,,,,,,,,,,,,,,,,,
,,,,,,,,,,,,l,1.119315,Correct!,,,,,,t2.png,t5.png,3,0.0000131,19,Female,2020-10-22_21h29.04.780,torte-q,2020.1.3,MacIntel,60,,,,,,,,,,,,,,0,98,98,66,1,,,,,,,,,,,,,,,,,,,,,,,,,,
,,,,,,,,,,,,l,1.402885,Incorrect,,,,,,t2.png,t1.png,1,0.9,19,Female,2020-10-22_21h29.04.780,torte-q,2020.1.3,MacIntel,60,,,,,,,,,,,,,,0,99,99,118,1,,,,,,,,,,,,,,,,,,,,,,,,,,
,,,,,,,,,,,,l,0.83854,Correct!,,,,,,t1.png,t4.png,3,0.0000131,19,Female,2020-10-22_21h29.04.780,torte-q,2020.1.3,MacIntel,60,,,,,,,,,,,,,,0,100,100,107,1,,,,,,,,,,,,,,,,,,,,,,,,,,
,,,,,,,,,,,,l,0.952455,Correct!,,,,,,t2.png,t5.png,3,0.0000131,19,Female,2020-10-22_21h29.04.780,torte-q,2020.1.3,MacIntel,60,,,,,,,,,,,,,,0,101,101,40,1,,,,,,,,,,,,,,,,,,,,,,,,,,
,,,,,,,,,,,,l,1.118875,Correct!,,,,,,t3.png,t5.png,2,0.056466,19,Female,2020-10-22_21h29.04.780,torte-q,2020.1.3,MacIntel,60,,,,,,,,,,,,,,0,102,102,6,1,,,,,,,,,,,,,,,,,,,,,,,,,,
,,,,,,,,,,,,l,0.63598,Correct!,,,,,,t3.png,t5.png,2,0.0565,19,Female,2020-10-22_21h29.04.780,torte-q,2020.1.3,MacIntel,60,,,,,,,,,,,,,,0,103,103,30,1,,,,,,,,,,,,,,,,,,,,,,,,,,
,,,,,,,,,,,,l,0.80292,Incorrect,,,,,,t3.png,t4.png,1,0.909,19,Female,2020-10-22_21h29.04.780,torte-q,2020.1.3,MacIntel,60,,,,,,,,,,,,,,0,104,104,89,1,,,,,,,,,,,,,,,,,,,,,,,,,,
,,,,,,,,,,,,l,1.035715,Incorrect,,,,,,t4.png,t5.png,1,0.90025,19,Female,2020-10-22_21h29.04.780,torte-q,2020.1.3,MacIntel,60,,,,,,,,,,,,,,0,105,105,58,1,,,,,,,,,,,,,,,,,,,,,,,,,,
,,,,,,,,,,,,a,0.873715,Incorrect,,,,,,t3.png,t1.png,2,0.056466,19,Female,2020-10-22_21h29.04.780,torte-q,2020.1.3,MacIntel,60,,,,,,,,,,,,,,0,106,106,64,1,,,,,,,,,,,,,,,,,,,,,,,,,,
,,,,,,,,,,,,a,0.87067,Incorrect,,,,,,t2.png,t4.png,2,0.059078,19,Female,2020-10-22_21h29.04.780,torte-q,2020.1.3,MacIntel,60,,,,,,,,,,,,,,0,107,107,77,1,,,,,,,,,,,,,,,,,,,,,,,,,,
,,,,,,,,,,,,l,1.05488,Incorrect,,,,,,t2.png,t1.png,1,0.90025,19,Female,2020-10-22_21h29.04.780,torte-q,2020.1.3,MacIntel,60,,,,,,,,,,,,,,0,108,108,5,1,,,,,,,,,,,,,,,,,,,,,,,,,,
,,,,,,,,,,,,l,2.14995,Correct!,,,,,,t3.png,t5.png,2,0.056466,19,Female,2020-10-22_21h29.04.780,torte-q,2020.1.3,MacIntel,60,,,,,,,,,,,,,,0,109,109,44,1,,,,,,,,,,,,,,,,,,,,,,,,,,
,,,,,,,,,,,,a,1.155455,Correct!,,,,,,t5.png,t4.png,1,0.90025,19,Female,2020-10-22_21h29.04.780,torte-q,2020.1.3,MacIntel,60,,,,,,,,,,,,,,0,110,110,26,1,,,,,,,,,,,,,,,,,,,,,,,,,,
,,,,,,,,,,,,a,1.236325,Incorrect,,,,,,t1.png,t4.png,3,0.0000131,19,Female,2020-10-22_21h29.04.780,torte-q,2020.1.3,MacIntel,60,,,,,,,,,,,,,,0,111,111,81,1,,,,,,,,,,,,,,,,,,,,,,,,,,
,,,,,,,,,,,,a,1.084335,Incorrect,,,,,,t1.png,t3.png,2,0.056466,19,Female,2020-10-22_21h29.04.780,torte-q,2020.1.3,MacIntel,60,,,,,,,,,,,,,,0,112,112,99,1,,,,,,,,,,,,,,,,,,,,,,,,,,
,,,,,,,,,,,,l,1.78305,Incorrect,,,,,,t5.png,t5.png,0,0.978,19,Female,2020-10-22_21h29.04.780,torte-q,2020.1.3,MacIntel,60,,,,,,,,,,,,,,0,113,113,117,1,,,,,,,,,,,,,,,,,,,,,,,,,,
,,,,,,,,,,,,l,1.723675,Correct!,,,,,,t4.png,t1.png,3,0.0000131,19,Female,2020-10-22_21h29.04.780,torte-q,2020.1.3,MacIntel,60,,,,,,,,,,,,,,0,114,114,61,1,,,,,,,,,,,,,,,,,,,,,,,,,,
,,,,,,,,,,,,a,1.501205,Incorrect,,,,,,t5.png,t1.png,4,9.55E-11,19,Female,2020-10-22_21h29.04.780,torte-q,2020.1.3,MacIntel,60,,,,,,,,,,,,,,0,115,115,102,1,,,,,,,,,,,,,,,,,,,,,,,,,,
,,,,,,,,,,,,l,2.195395,Incorrect,,,,,,t3.png,t2.png,1,0.909,19,Female,2020-10-22_21h29.04.780,torte-q,2020.1.3,MacIntel,60,,,,,,,,,,,,,,0,116,116,23,1,,,,,,,,,,,,,,,,,,,,,,,,,,
,,,,,,,,,,,,a,2.240775,Incorrect,,,,,,t1.png,t3.png,2,0.056466,19,Female,2020-10-22_21h29.04.780,torte-q,2020.1.3,MacIntel,60,,,,,,,,,,,,,,0,117,117,60,1,,,,,,,,,,,,,,,,,,,,,,,,,,
,,,,,,,,,,,,a,1.67972,Incorrect,,,,,,t1.png,t5.png,4,9.55E-11,19,Female,2020-10-22_21h29.04.780,torte-q,2020.1.3,MacIntel,60,,,,,,,,,,,,,,0,118,118,85,1,,,,,,,,,,,,,,,,,,,,,,,,,,
,,,,,,,,,,,,a,1.31369,Incorrect,,,,,,t1.png,t5.png,4,9.55E-11,19,Female,2020-10-22_21h29.04.780,torte-q,2020.1.3,MacIntel,60,,,,,,,,,,,,,,0,119,119,16,1,,,,,,,,,,,,,,,,,,,,,,,,,,
,,,,,,,,,,,,,,,,,,,,,,,,19,Female,2020-10-22_21h29.04.780,torte-q,2020.1.3,MacIntel,60,space,2.691845,,,,,,,,,,,,,,,,,5.973525391,6.560635,249.921875,-55.32421875,1,0,0,s5,194.8476563,-92.6171875,1,0,0,t4,194.8476563,-92.6171875,1,0,0,proceed,space,6.63908,space,0.917425,space,0.690805
