key_resp_8.keys,key_resp_8.rt,key_resp_9.keys,key_resp_9.rt,key_resp_10.keys,key_resp_10.rt,key_resp_11.keys,key_resp_11.rt,key_resp_2.keys,key_resp_2.rt,key_resp_3.keys,key_resp_3.rt,key_resp.keys,Feedback,train.thisRepN,train.thisTrialN,train.thisN,train.thisIndex,train.ran,torta_sx,torta_dx,difference,probability,age,gender,date,expName,psychopyVersion,OS,frameRate,key_resp.rt,key_resp_15.keys,key_resp_15.rt,key_resp_6.keys,key_resp_6.rt,test1.thisRepN,test1.thisTrialN,test1.thisN,test1.thisIndex,test1.ran,key_resp_16.keys,key_resp_16.rt,key_resp_7.keys,key_resp_7.rt,test2.thisRepN,test2.thisTrialN,test2.thisN,test2.thisIndex,test2.ran,rating.response,rating.rt,mouse.x,mouse.y,mouse.leftButton,mouse.midButton,mouse.rightButton,mouse.clicked_name,mouse_2.x,mouse_2.y,mouse_2.leftButton,mouse_2.midButton,mouse_2.rightButton,mouse_2.clicked_name,mouse_3.x,mouse_3.y,mouse_3.leftButton,mouse_3.midButton,mouse_3.rightButton,mouse_3.clicked_name,key_resp_12.keys,key_resp_12.rt,key_resp_13.keys,key_resp_13.rt,key_resp_14.keys,key_resp_14.rt
space,1.803835,space,3.408695,space,0.608345,space,1.61739,space,37.61168,space,82.955125,,Too slow :(,0,0,0,24,1,t4.png,t2.png,2,0.059078,19,female,2020-10-13_20h20.57.075,torte-q,2020.1.3,Win32,60,,,,,,,,,,,,,,,,,,,,,,,,,,,,,,,,,,,,,,,,,,,,,
,,,,,,,,,,,,a,Correct!,0,1,1,97,1,t5.png,t5.png,0,0.97829,19,female,2020-10-13_20h20.57.075,torte-q,2020.1.3,Win32,60,1.52929,,,,,,,,,,,,,,,,,,,,,,,,,,,,,,,,,,,,,,,,,,,,
,,,,,,,,,,,,l,Incorrect,0,2,2,66,1,t4.png,t5.png,1,0.9,19,female,2020-10-13_20h20.57.075,torte-q,2020.1.3,Win32,60,1.249655,,,,,,,,,,,,,,,,,,,,,,,,,,,,,,,,,,,,,,,,,,,,
,,,,,,,,,,,,a,Correct!,0,3,3,7,1,t4.png,t5.png,1,0.90025,19,female,2020-10-13_20h20.57.075,torte-q,2020.1.3,Win32,60,0.98073,,,,,,,,,,,,,,,,,,,,,,,,,,,,,,,,,,,,,,,,,,,,
,,,,,,,,,,,,l,Correct!,0,4,4,99,1,t1.png,t5.png,4,9.55E-11,19,female,2020-10-13_20h20.57.075,torte-q,2020.1.3,Win32,60,0.679445,,,,,,,,,,,,,,,,,,,,,,,,,,,,,,,,,,,,,,,,,,,,
,,,,,,,,,,,,a,Incorrect,0,5,5,88,1,t3.png,t1.png,2,0.056466,19,female,2020-10-13_20h20.57.075,torte-q,2020.1.3,Win32,60,0.65554,,,,,,,,,,,,,,,,,,,,,,,,,,,,,,,,,,,,,,,,,,,,
,,,,,,,,,,,,l,Incorrect,0,6,6,104,1,t2.png,t3.png,1,0.90855,19,female,2020-10-13_20h20.57.075,torte-q,2020.1.3,Win32,60,1.34717,,,,,,,,,,,,,,,,,,,,,,,,,,,,,,,,,,,,,,,,,,,,
,,,,,,,,,,,,l,Correct!,0,7,7,68,1,t1.png,t4.png,3,0.0000131,19,female,2020-10-13_20h20.57.075,torte-q,2020.1.3,Win32,60,0.581585,,,,,,,,,,,,,,,,,,,,,,,,,,,,,,,,,,,,,,,,,,,,
,,,,,,,,,,,,l,Incorrect,0,8,8,28,1,t2.png,t3.png,1,0.909,19,female,2020-10-13_20h20.57.075,torte-q,2020.1.3,Win32,60,0.93169,,,,,,,,,,,,,,,,,,,,,,,,,,,,,,,,,,,,,,,,,,,,
,,,,,,,,,,,,a,Incorrect,0,9,9,47,1,t4.png,t2.png,2,0.059078,19,female,2020-10-13_20h20.57.075,torte-q,2020.1.3,Win32,60,0.63926,,,,,,,,,,,,,,,,,,,,,,,,,,,,,,,,,,,,,,,,,,,,
,,,,,,,,,,,,a,Incorrect,0,10,10,72,1,t4.png,t2.png,2,0.059078,19,female,2020-10-13_20h20.57.075,torte-q,2020.1.3,Win32,60,0.69886,,,,,,,,,,,,,,,,,,,,,,,,,,,,,,,,,,,,,,,,,,,,
,,,,,,,,,,,,l,Correct!,0,11,11,26,1,t4.png,t2.png,2,0.0591,19,female,2020-10-13_20h20.57.075,torte-q,2020.1.3,Win32,60,0.633575,,,,,,,,,,,,,,,,,,,,,,,,,,,,,,,,,,,,,,,,,,,,
,,,,,,,,,,,,l,Correct!,0,12,12,27,1,t3.png,t1.png,2,0.0565,19,female,2020-10-13_20h20.57.075,torte-q,2020.1.3,Win32,60,0.62238,,,,,,,,,,,,,,,,,,,,,,,,,,,,,,,,,,,,,,,,,,,,
,,,,,,,,,,,,l,Incorrect,0,13,13,95,1,t1.png,t1.png,0,0.978,19,female,2020-10-13_20h20.57.075,torte-q,2020.1.3,Win32,60,1.602885,,,,,,,,,,,,,,,,,,,,,,,,,,,,,,,,,,,,,,,,,,,,
,,,,,,,,,,,,l,Correct!,0,14,14,90,1,t1.png,t5.png,4,9.55E-11,19,female,2020-10-13_20h20.57.075,torte-q,2020.1.3,Win32,60,0.560075,,,,,,,,,,,,,,,,,,,,,,,,,,,,,,,,,,,,,,,,,,,,
,,,,,,,,,,,,l,Correct!,0,15,15,4,1,t1.png,t5.png,4,9.55E-11,19,female,2020-10-13_20h20.57.075,torte-q,2020.1.3,Win32,60,0.812595,,,,,,,,,,,,,,,,,,,,,,,,,,,,,,,,,,,,,,,,,,,,
,,,,,,,,,,,,a,Correct!,0,16,16,15,1,t3.png,t2.png,1,0.90855,19,female,2020-10-13_20h20.57.075,torte-q,2020.1.3,Win32,60,0.45105,,,,,,,,,,,,,,,,,,,,,,,,,,,,,,,,,,,,,,,,,,,,
,,,,,,,,,,,,l,Correct!,0,17,17,91,1,t1.png,t4.png,3,0.0000131,19,female,2020-10-13_20h20.57.075,torte-q,2020.1.3,Win32,60,0.4339,,,,,,,,,,,,,,,,,,,,,,,,,,,,,,,,,,,,,,,,,,,,
,,,,,,,,,,,,l,Correct!,0,18,18,98,1,t2.png,t4.png,2,0.0591,19,female,2020-10-13_20h20.57.075,torte-q,2020.1.3,Win32,60,0.49151,,,,,,,,,,,,,,,,,,,,,,,,,,,,,,,,,,,,,,,,,,,,
,,,,,,,,,,,,l,Correct!,0,19,19,119,1,t1.png,t5.png,4,9.55E-11,19,female,2020-10-13_20h20.57.075,torte-q,2020.1.3,Win32,60,0.407115,,,,,,,,,,,,,,,,,,,,,,,,,,,,,,,,,,,,,,,,,,,,
,,,,,,,,,,,,a,Correct!,0,20,20,118,1,t5.png,t5.png,0,0.978,19,female,2020-10-13_20h20.57.075,torte-q,2020.1.3,Win32,60,0.911515,,,,,,,,,,,,,,,,,,,,,,,,,,,,,,,,,,,,,,,,,,,,
,,,,,,,,,,,,a,Correct!,0,21,21,45,1,t3.png,t2.png,1,0.90855,19,female,2020-10-13_20h20.57.075,torte-q,2020.1.3,Win32,60,0.561635,,,,,,,,,,,,,,,,,,,,,,,,,,,,,,,,,,,,,,,,,,,,
,,,,,,,,,,,,l,Incorrect,0,22,22,78,1,t1.png,t1.png,0,0.978,19,female,2020-10-13_20h20.57.075,torte-q,2020.1.3,Win32,60,0.817755,,,,,,,,,,,,,,,,,,,,,,,,,,,,,,,,,,,,,,,,,,,,
,,,,,,,,,,,,a,Incorrect,0,23,23,87,1,t5.png,t1.png,4,9.55E-11,19,female,2020-10-13_20h20.57.075,torte-q,2020.1.3,Win32,60,0.709,,,,,,,,,,,,,,,,,,,,,,,,,,,,,,,,,,,,,,,,,,,,
,,,,,,,,,,,,l,Correct!,0,24,24,19,1,t4.png,t2.png,2,0.059078,19,female,2020-10-13_20h20.57.075,torte-q,2020.1.3,Win32,60,0.56786,,,,,,,,,,,,,,,,,,,,,,,,,,,,,,,,,,,,,,,,,,,,
,,,,,,,,,,,,l,Correct!,0,25,25,93,1,t2.png,t4.png,2,0.059078,19,female,2020-10-13_20h20.57.075,torte-q,2020.1.3,Win32,60,0.57843,,,,,,,,,,,,,,,,,,,,,,,,,,,,,,,,,,,,,,,,,,,,
,,,,,,,,,,,,l,Correct!,0,26,26,94,1,t5.png,t1.png,4,9.55E-11,19,female,2020-10-13_20h20.57.075,torte-q,2020.1.3,Win32,60,0.71858,,,,,,,,,,,,,,,,,,,,,,,,,,,,,,,,,,,,,,,,,,,,
,,,,,,,,,,,,l,Incorrect,0,27,27,73,1,t4.png,t2.png,2,0.059078,19,female,2020-10-13_20h20.57.075,torte-q,2020.1.3,Win32,60,0.76817,,,,,,,,,,,,,,,,,,,,,,,,,,,,,,,,,,,,,,,,,,,,
,,,,,,,,,,,,l,Correct!,0,28,28,11,1,t1.png,t4.png,3,0.0000131,19,female,2020-10-13_20h20.57.075,torte-q,2020.1.3,Win32,60,1.4513,,,,,,,,,,,,,,,,,,,,,,,,,,,,,,,,,,,,,,,,,,,,
,,,,,,,,,,,,,Too slow :(,0,29,29,77,1,t1.png,t1.png,0,0.97829,19,female,2020-10-13_20h20.57.075,torte-q,2020.1.3,Win32,60,,,,,,,,,,,,,,,,,,,,,,,,,,,,,,,,,,,,,,,,,,,,,
,,,,,,,,,,,,a,Correct!,0,30,30,18,1,t4.png,t5.png,1,0.90025,19,female,2020-10-13_20h20.57.075,torte-q,2020.1.3,Win32,60,0.672275,,,,,,,,,,,,,,,,,,,,,,,,,,,,,,,,,,,,,,,,,,,,
,,,,,,,,,,,,l,Correct!,0,31,31,51,1,t3.png,t1.png,2,0.056466,19,female,2020-10-13_20h20.57.075,torte-q,2020.1.3,Win32,60,0.801555,,,,,,,,,,,,,,,,,,,,,,,,,,,,,,,,,,,,,,,,,,,,
,,,,,,,,,,,,l,Correct!,0,32,32,1,1,t2.png,t4.png,2,0.059078,19,female,2020-10-13_20h20.57.075,torte-q,2020.1.3,Win32,60,0.58094,,,,,,,,,,,,,,,,,,,,,,,,,,,,,,,,,,,,,,,,,,,,
,,,,,,,,,,,,a,Correct!,0,33,33,23,1,t5.png,t4.png,1,0.90025,19,female,2020-10-13_20h20.57.075,torte-q,2020.1.3,Win32,60,1.401225,,,,,,,,,,,,,,,,,,,,,,,,,,,,,,,,,,,,,,,,,,,,
,,,,,,,,,,,,a,Incorrect,0,34,34,44,1,t2.png,t3.png,1,0.909,19,female,2020-10-13_20h20.57.075,torte-q,2020.1.3,Win32,60,1.226445,,,,,,,,,,,,,,,,,,,,,,,,,,,,,,,,,,,,,,,,,,,,
,,,,,,,,,,,,l,Incorrect,0,35,35,25,1,t5.png,t5.png,0,0.97829,19,female,2020-10-13_20h20.57.075,torte-q,2020.1.3,Win32,60,0.563545,,,,,,,,,,,,,,,,,,,,,,,,,,,,,,,,,,,,,,,,,,,,
,,,,,,,,,,,,a,Correct!,0,36,36,107,1,t1.png,t1.png,0,0.978,19,female,2020-10-13_20h20.57.075,torte-q,2020.1.3,Win32,60,2.101635,,,,,,,,,,,,,,,,,,,,,,,,,,,,,,,,,,,,,,,,,,,,
,,,,,,,,,,,,l,Correct!,0,37,37,80,1,t1.png,t4.png,3,0.0000131,19,female,2020-10-13_20h20.57.075,torte-q,2020.1.3,Win32,60,0.80296,,,,,,,,,,,,,,,,,,,,,,,,,,,,,,,,,,,,,,,,,,,,
,,,,,,,,,,,,l,Correct!,0,38,38,117,1,t1.png,t5.png,4,9.55E-11,19,female,2020-10-13_20h20.57.075,torte-q,2020.1.3,Win32,60,0.43786,,,,,,,,,,,,,,,,,,,,,,,,,,,,,,,,,,,,,,,,,,,,
,,,,,,,,,,,,l,Correct!,0,39,39,5,1,t2.png,t4.png,2,0.059078,19,female,2020-10-13_20h20.57.075,torte-q,2020.1.3,Win32,60,0.48453,,,,,,,,,,,,,,,,,,,,,,,,,,,,,,,,,,,,,,,,,,,,
,,,,,,,,,,,,l,Incorrect,0,40,40,114,1,t2.png,t3.png,1,0.90855,19,female,2020-10-13_20h20.57.075,torte-q,2020.1.3,Win32,60,0.591535,,,,,,,,,,,,,,,,,,,,,,,,,,,,,,,,,,,,,,,,,,,,
,,,,,,,,,,,,a,Correct!,0,41,41,100,1,t4.png,t5.png,1,0.90025,19,female,2020-10-13_20h20.57.075,torte-q,2020.1.3,Win32,60,0.46494,,,,,,,,,,,,,,,,,,,,,,,,,,,,,,,,,,,,,,,,,,,,
,,,,,,,,,,,,l,Incorrect,0,42,42,57,1,t2.png,t4.png,2,0.059078,19,female,2020-10-13_20h20.57.075,torte-q,2020.1.3,Win32,60,0.46887,,,,,,,,,,,,,,,,,,,,,,,,,,,,,,,,,,,,,,,,,,,,
,,,,,,,,,,,,l,Incorrect,0,43,43,48,1,t5.png,t5.png,0,0.97829,19,female,2020-10-13_20h20.57.075,torte-q,2020.1.3,Win32,60,0.429205,,,,,,,,,,,,,,,,,,,,,,,,,,,,,,,,,,,,,,,,,,,,
,,,,,,,,,,,,a,Correct!,0,44,44,84,1,t1.png,t1.png,0,0.97829,19,female,2020-10-13_20h20.57.075,torte-q,2020.1.3,Win32,60,0.4292,,,,,,,,,,,,,,,,,,,,,,,,,,,,,,,,,,,,,,,,,,,,
,,,,,,,,,,,,a,Correct!,0,45,45,81,1,t1.png,t1.png,0,0.97829,19,female,2020-10-13_20h20.57.075,torte-q,2020.1.3,Win32,60,0.53863,,,,,,,,,,,,,,,,,,,,,,,,,,,,,,,,,,,,,,,,,,,,
,,,,,,,,,,,,a,Incorrect,0,46,46,85,1,t3.png,t2.png,1,0.90855,19,female,2020-10-13_20h20.57.075,torte-q,2020.1.3,Win32,60,1.247635,,,,,,,,,,,,,,,,,,,,,,,,,,,,,,,,,,,,,,,,,,,,
,,,,,,,,,,,,a,Incorrect,0,47,47,108,1,t5.png,t1.png,4,9.55E-11,19,female,2020-10-13_20h20.57.075,torte-q,2020.1.3,Win32,60,0.97663,,,,,,,,,,,,,,,,,,,,,,,,,,,,,,,,,,,,,,,,,,,,
,,,,,,,,,,,,l,Correct!,0,48,48,89,1,t1.png,t4.png,3,0.0000131,19,female,2020-10-13_20h20.57.075,torte-q,2020.1.3,Win32,60,0.479785,,,,,,,,,,,,,,,,,,,,,,,,,,,,,,,,,,,,,,,,,,,,
,,,,,,,,,,,,l,Incorrect,0,49,49,79,1,t3.png,t2.png,1,0.909,19,female,2020-10-13_20h20.57.075,torte-q,2020.1.3,Win32,60,0.58529,,,,,,,,,,,,,,,,,,,,,,,,,,,,,,,,,,,,,,,,,,,,
,,,,,,,,,,,,a,Correct!,0,50,50,65,1,t4.png,t5.png,1,0.90025,19,female,2020-10-13_20h20.57.075,torte-q,2020.1.3,Win32,60,1.40105,,,,,,,,,,,,,,,,,,,,,,,,,,,,,,,,,,,,,,,,,,,,
,,,,,,,,,,,,a,Incorrect,0,51,51,43,1,t4.png,t2.png,2,0.059078,19,female,2020-10-13_20h20.57.075,torte-q,2020.1.3,Win32,60,0.518225,,,,,,,,,,,,,,,,,,,,,,,,,,,,,,,,,,,,,,,,,,,,
,,,,,,,,,,,,l,Correct!,0,52,52,83,1,t3.png,t1.png,2,0.056466,19,female,2020-10-13_20h20.57.075,torte-q,2020.1.3,Win32,60,0.65459,,,,,,,,,,,,,,,,,,,,,,,,,,,,,,,,,,,,,,,,,,,,
,,,,,,,,,,,,l,Incorrect,0,53,53,21,1,t5.png,t4.png,1,0.90025,19,female,2020-10-13_20h20.57.075,torte-q,2020.1.3,Win32,60,0.56814,,,,,,,,,,,,,,,,,,,,,,,,,,,,,,,,,,,,,,,,,,,,
,,,,,,,,,,,,a,Correct!,0,54,54,13,1,t5.png,t5.png,0,0.97829,19,female,2020-10-13_20h20.57.075,torte-q,2020.1.3,Win32,60,0.379975,,,,,,,,,,,,,,,,,,,,,,,,,,,,,,,,,,,,,,,,,,,,
,,,,,,,,,,,,a,Incorrect,0,55,55,12,1,t5.png,t1.png,4,9.55E-11,19,female,2020-10-13_20h20.57.075,torte-q,2020.1.3,Win32,60,2.425835,,,,,,,,,,,,,,,,,,,,,,,,,,,,,,,,,,,,,,,,,,,,
,,,,,,,,,,,,l,Correct!,0,56,56,31,1,t1.png,t5.png,4,9.55E-11,19,female,2020-10-13_20h20.57.075,torte-q,2020.1.3,Win32,60,0.443795,,,,,,,,,,,,,,,,,,,,,,,,,,,,,,,,,,,,,,,,,,,,
,,,,,,,,,,,,l,Incorrect,0,57,57,42,1,t5.png,t4.png,1,0.90025,19,female,2020-10-13_20h20.57.075,torte-q,2020.1.3,Win32,60,0.596475,,,,,,,,,,,,,,,,,,,,,,,,,,,,,,,,,,,,,,,,,,,,
,,,,,,,,,,,,a,Incorrect,0,58,58,33,1,t5.png,t1.png,4,9.55E-11,19,female,2020-10-13_20h20.57.075,torte-q,2020.1.3,Win32,60,0.41822,,,,,,,,,,,,,,,,,,,,,,,,,,,,,,,,,,,,,,,,,,,,
,,,,,,,,,,,,l,Correct!,0,59,59,60,1,t2.png,t4.png,2,0.059078,19,female,2020-10-13_20h20.57.075,torte-q,2020.1.3,Win32,60,0.57485,,,,,,,,,,,,,,,,,,,,,,,,,,,,,,,,,,,,,,,,,,,,
,,,,,,,,,,,,l,Incorrect,0,60,60,101,1,t4.png,t5.png,1,0.90025,19,female,2020-10-13_20h20.57.075,torte-q,2020.1.3,Win32,60,0.39325,,,,,,,,,,,,,,,,,,,,,,,,,,,,,,,,,,,,,,,,,,,,
,,,,,,,,,,,,a,Incorrect,0,61,61,111,1,t5.png,t1.png,4,9.55E-11,19,female,2020-10-13_20h20.57.075,torte-q,2020.1.3,Win32,60,0.480055,,,,,,,,,,,,,,,,,,,,,,,,,,,,,,,,,,,,,,,,,,,,
,,,,,,,,,,,,l,Correct!,0,62,62,56,1,t5.png,t1.png,4,9.55E-11,19,female,2020-10-13_20h20.57.075,torte-q,2020.1.3,Win32,60,0.3634,,,,,,,,,,,,,,,,,,,,,,,,,,,,,,,,,,,,,,,,,,,,
,,,,,,,,,,,,l,Correct!,0,63,63,103,1,t3.png,t1.png,2,0.056466,19,female,2020-10-13_20h20.57.075,torte-q,2020.1.3,Win32,60,0.483675,,,,,,,,,,,,,,,,,,,,,,,,,,,,,,,,,,,,,,,,,,,,
,,,,,,,,,,,,l,Incorrect,0,64,64,63,1,t2.png,t3.png,1,0.909,19,female,2020-10-13_20h20.57.075,torte-q,2020.1.3,Win32,60,0.49622,,,,,,,,,,,,,,,,,,,,,,,,,,,,,,,,,,,,,,,,,,,,
,,,,,,,,,,,,l,Incorrect,0,65,65,9,1,t4.png,t5.png,1,0.9,19,female,2020-10-13_20h20.57.075,torte-q,2020.1.3,Win32,60,0.434425,,,,,,,,,,,,,,,,,,,,,,,,,,,,,,,,,,,,,,,,,,,,
,,,,,,,,,,,,l,Incorrect,0,66,66,52,1,t2.png,t4.png,2,0.059078,19,female,2020-10-13_20h20.57.075,torte-q,2020.1.3,Win32,60,0.85277,,,,,,,,,,,,,,,,,,,,,,,,,,,,,,,,,,,,,,,,,,,,
,,,,,,,,,,,,a,Correct!,0,67,67,8,1,t3.png,t2.png,1,0.90855,19,female,2020-10-13_20h20.57.075,torte-q,2020.1.3,Win32,60,0.330625,,,,,,,,,,,,,,,,,,,,,,,,,,,,,,,,,,,,,,,,,,,,
,,,,,,,,,,,,l,Incorrect,0,68,68,75,1,t1.png,t1.png,0,0.97829,19,female,2020-10-13_20h20.57.075,torte-q,2020.1.3,Win32,60,0.77627,,,,,,,,,,,,,,,,,,,,,,,,,,,,,,,,,,,,,,,,,,,,
,,,,,,,,,,,,a,Correct!,0,69,69,49,1,t4.png,t5.png,1,0.9,19,female,2020-10-13_20h20.57.075,torte-q,2020.1.3,Win32,60,0.3704,,,,,,,,,,,,,,,,,,,,,,,,,,,,,,,,,,,,,,,,,,,,
,,,,,,,,,,,,a,Correct!,0,70,70,10,1,t2.png,t3.png,1,0.90855,19,female,2020-10-13_20h20.57.075,torte-q,2020.1.3,Win32,60,0.579615,,,,,,,,,,,,,,,,,,,,,,,,,,,,,,,,,,,,,,,,,,,,
,,,,,,,,,,,,a,Incorrect,0,71,71,86,1,t3.png,t1.png,2,0.056466,19,female,2020-10-13_20h20.57.075,torte-q,2020.1.3,Win32,60,0.397125,,,,,,,,,,,,,,,,,,,,,,,,,,,,,,,,,,,,,,,,,,,,
,,,,,,,,,,,,l,Correct!,0,72,72,54,1,t1.png,t5.png,4,9.55E-11,19,female,2020-10-13_20h20.57.075,torte-q,2020.1.3,Win32,60,0.28782,,,,,,,,,,,,,,,,,,,,,,,,,,,,,,,,,,,,,,,,,,,,
,,,,,,,,,,,,l,Incorrect,0,73,73,116,1,t5.png,t4.png,1,0.90025,19,female,2020-10-13_20h20.57.075,torte-q,2020.1.3,Win32,60,0.505665,,,,,,,,,,,,,,,,,,,,,,,,,,,,,,,,,,,,,,,,,,,,
,,,,,,,,,,,,a,Correct!,0,74,74,16,1,t5.png,t4.png,1,0.9,19,female,2020-10-13_20h20.57.075,torte-q,2020.1.3,Win32,60,0.304785,,,,,,,,,,,,,,,,,,,,,,,,,,,,,,,,,,,,,,,,,,,,
,,,,,,,,,,,,a,Correct!,0,75,75,32,1,t4.png,t5.png,1,0.90025,19,female,2020-10-13_20h20.57.075,torte-q,2020.1.3,Win32,60,0.406915,,,,,,,,,,,,,,,,,,,,,,,,,,,,,,,,,,,,,,,,,,,,
,,,,,,,,,,,,a,Correct!,0,76,76,46,1,t4.png,t2.png,2,0.059078,19,female,2020-10-13_20h20.57.075,torte-q,2020.1.3,Win32,60,0.384185,,,,,,,,,,,,,,,,,,,,,,,,,,,,,,,,,,,,,,,,,,,,
,,,,,,,,,,,,a,Incorrect,0,77,77,69,1,t4.png,t2.png,2,0.059078,19,female,2020-10-13_20h20.57.075,torte-q,2020.1.3,Win32,60,0.40278,,,,,,,,,,,,,,,,,,,,,,,,,,,,,,,,,,,,,,,,,,,,
,,,,,,,,,,,,l,Correct!,0,78,78,38,1,t3.png,t1.png,2,0.056466,19,female,2020-10-13_20h20.57.075,torte-q,2020.1.3,Win32,60,0.447275,,,,,,,,,,,,,,,,,,,,,,,,,,,,,,,,,,,,,,,,,,,,
,,,,,,,,,,,,l,Correct!,0,79,79,102,1,t4.png,t2.png,2,0.059078,19,female,2020-10-13_20h20.57.075,torte-q,2020.1.3,Win32,60,0.428215,,,,,,,,,,,,,,,,,,,,,,,,,,,,,,,,,,,,,,,,,,,,
,,,,,,,,,,,,l,Incorrect,0,80,80,29,1,t5.png,t5.png,0,0.97829,19,female,2020-10-13_20h20.57.075,torte-q,2020.1.3,Win32,60,0.52192,,,,,,,,,,,,,,,,,,,,,,,,,,,,,,,,,,,,,,,,,,,,
,,,,,,,,,,,,a,Incorrect,0,81,81,61,1,t1.png,t4.png,3,0.0000131,19,female,2020-10-13_20h20.57.075,torte-q,2020.1.3,Win32,60,0.49003,,,,,,,,,,,,,,,,,,,,,,,,,,,,,,,,,,,,,,,,,,,,
,,,,,,,,,,,,,Too slow :(,0,82,82,40,1,t1.png,t5.png,4,9.55E-11,19,female,2020-10-13_20h20.57.075,torte-q,2020.1.3,Win32,60,,,,,,,,,,,,,,,,,,,,,,,,,,,,,,,,,,,,,,,,,,,,,
,,,,,,,,,,,,l,Correct!,0,83,83,115,1,t2.png,t4.png,2,0.059078,19,female,2020-10-13_20h20.57.075,torte-q,2020.1.3,Win32,60,0.402075,,,,,,,,,,,,,,,,,,,,,,,,,,,,,,,,,,,,,,,,,,,,
,,,,,,,,,,,,l,Incorrect,0,84,84,34,1,t5.png,t4.png,1,0.9,19,female,2020-10-13_20h20.57.075,torte-q,2020.1.3,Win32,60,0.53454,,,,,,,,,,,,,,,,,,,,,,,,,,,,,,,,,,,,,,,,,,,,
,,,,,,,,,,,,a,Correct!,0,85,85,58,1,t5.png,t4.png,1,0.90025,19,female,2020-10-13_20h20.57.075,torte-q,2020.1.3,Win32,60,1.796135,,,,,,,,,,,,,,,,,,,,,,,,,,,,,,,,,,,,,,,,,,,,
,,,,,,,,,,,,l,Correct!,0,86,86,35,1,t1.png,t4.png,3,0.0000131,19,female,2020-10-13_20h20.57.075,torte-q,2020.1.3,Win32,60,2.11286,,,,,,,,,,,,,,,,,,,,,,,,,,,,,,,,,,,,,,,,,,,,
,,,,,,,,,,,,l,Incorrect,0,87,87,62,1,t5.png,t5.png,0,0.978,19,female,2020-10-13_20h20.57.075,torte-q,2020.1.3,Win32,60,0.434565,,,,,,,,,,,,,,,,,,,,,,,,,,,,,,,,,,,,,,,,,,,,
,,,,,,,,,,,,a,Correct!,0,88,88,106,1,t2.png,t3.png,1,0.90855,19,female,2020-10-13_20h20.57.075,torte-q,2020.1.3,Win32,60,0.30096,,,,,,,,,,,,,,,,,,,,,,,,,,,,,,,,,,,,,,,,,,,,
,,,,,,,,,,,,l,Incorrect,0,89,89,2,1,t3.png,t2.png,1,0.90855,19,female,2020-10-13_20h20.57.075,torte-q,2020.1.3,Win32,60,0.90831,,,,,,,,,,,,,,,,,,,,,,,,,,,,,,,,,,,,,,,,,,,,
,,,,,,,,,,,,a,Incorrect,0,90,90,50,1,t5.png,t1.png,4,9.55E-11,19,female,2020-10-13_20h20.57.075,torte-q,2020.1.3,Win32,60,0.40131,,,,,,,,,,,,,,,,,,,,,,,,,,,,,,,,,,,,,,,,,,,,
,,,,,,,,,,,,l,Incorrect,0,91,91,74,1,t5.png,t4.png,1,0.9,19,female,2020-10-13_20h20.57.075,torte-q,2020.1.3,Win32,60,0.568675,,,,,,,,,,,,,,,,,,,,,,,,,,,,,,,,,,,,,,,,,,,,
,,,,,,,,,,,,a,Correct!,0,92,92,96,1,t1.png,t1.png,0,0.97829,19,female,2020-10-13_20h20.57.075,torte-q,2020.1.3,Win32,60,0.33437,,,,,,,,,,,,,,,,,,,,,,,,,,,,,,,,,,,,,,,,,,,,
,,,,,,,,,,,,a,Correct!,0,93,93,92,1,t2.png,t3.png,1,0.909,19,female,2020-10-13_20h20.57.075,torte-q,2020.1.3,Win32,60,0.384405,,,,,,,,,,,,,,,,,,,,,,,,,,,,,,,,,,,,,,,,,,,,
,,,,,,,,,,,,a,Incorrect,0,94,94,55,1,t2.png,t4.png,2,0.059078,19,female,2020-10-13_20h20.57.075,torte-q,2020.1.3,Win32,60,0.35477,,,,,,,,,,,,,,,,,,,,,,,,,,,,,,,,,,,,,,,,,,,,
,,,,,,,,,,,,l,Correct!,0,95,95,3,1,t1.png,t5.png,4,9.55E-11,19,female,2020-10-13_20h20.57.075,torte-q,2020.1.3,Win32,60,0.593075,,,,,,,,,,,,,,,,,,,,,,,,,,,,,,,,,,,,,,,,,,,,
,,,,,,,,,,,,l,Incorrect,0,96,96,110,1,t4.png,t5.png,1,0.90025,19,female,2020-10-13_20h20.57.075,torte-q,2020.1.3,Win32,60,0.713185,,,,,,,,,,,,,,,,,,,,,,,,,,,,,,,,,,,,,,,,,,,,
,,,,,,,,,,,,a,Incorrect,0,97,97,17,1,t1.png,t4.png,3,0.0000131,19,female,2020-10-13_20h20.57.075,torte-q,2020.1.3,Win32,60,0.556215,,,,,,,,,,,,,,,,,,,,,,,,,,,,,,,,,,,,,,,,,,,,
,,,,,,,,,,,,l,Incorrect,0,98,98,22,1,t2.png,t3.png,1,0.90855,19,female,2020-10-13_20h20.57.075,torte-q,2020.1.3,Win32,60,1.06317,,,,,,,,,,,,,,,,,,,,,,,,,,,,,,,,,,,,,,,,,,,,
,,,,,,,,,,,,l,Incorrect,0,99,99,20,1,t2.png,t3.png,1,0.90855,19,female,2020-10-13_20h20.57.075,torte-q,2020.1.3,Win32,60,0.504215,,,,,,,,,,,,,,,,,,,,,,,,,,,,,,,,,,,,,,,,,,,,
,,,,,,,,,,,,a,Correct!,0,100,100,105,1,t3.png,t2.png,1,0.90855,19,female,2020-10-13_20h20.57.075,torte-q,2020.1.3,Win32,60,0.34559,,,,,,,,,,,,,,,,,,,,,,,,,,,,,,,,,,,,,,,,,,,,
,,,,,,,,,,,,a,Incorrect,0,101,101,67,1,t1.png,t5.png,4,9.55E-11,19,female,2020-10-13_20h20.57.075,torte-q,2020.1.3,Win32,60,1.12824,,,,,,,,,,,,,,,,,,,,,,,,,,,,,,,,,,,,,,,,,,,,
,,,,,,,,,,,,l,Incorrect,0,102,102,71,1,t5.png,t5.png,0,0.97829,19,female,2020-10-13_20h20.57.075,torte-q,2020.1.3,Win32,60,0.42126,,,,,,,,,,,,,,,,,,,,,,,,,,,,,,,,,,,,,,,,,,,,
,,,,,,,,,,,,l,Incorrect,0,103,103,112,1,t1.png,t1.png,0,0.97829,19,female,2020-10-13_20h20.57.075,torte-q,2020.1.3,Win32,60,0.39623,,,,,,,,,,,,,,,,,,,,,,,,,,,,,,,,,,,,,,,,,,,,
,,,,,,,,,,,,a,Incorrect,0,104,104,0,1,t5.png,t1.png,4,9.55E-11,19,female,2020-10-13_20h20.57.075,torte-q,2020.1.3,Win32,60,0.306,,,,,,,,,,,,,,,,,,,,,,,,,,,,,,,,,,,,,,,,,,,,
,,,,,,,,,,,,l,Correct!,0,105,105,6,1,t1.png,t4.png,3,0.0000131,19,female,2020-10-13_20h20.57.075,torte-q,2020.1.3,Win32,60,0.636435,,,,,,,,,,,,,,,,,,,,,,,,,,,,,,,,,,,,,,,,,,,,
,,,,,,,,,,,,,Too slow :(,0,106,106,64,1,t1.png,t1.png,0,0.978,19,female,2020-10-13_20h20.57.075,torte-q,2020.1.3,Win32,60,,,,,,,,,,,,,,,,,,,,,,,,,,,,,,,,,,,,,,,,,,,,,
,,,,,,,,,,,,l,Incorrect,0,107,107,109,1,t5.png,t5.png,0,0.97829,19,female,2020-10-13_20h20.57.075,torte-q,2020.1.3,Win32,60,0.343785,,,,,,,,,,,,,,,,,,,,,,,,,,,,,,,,,,,,,,,,,,,,
,,,,,,,,,,,,a,Incorrect,0,108,108,82,1,t5.png,t1.png,4,9.55E-11,19,female,2020-10-13_20h20.57.075,torte-q,2020.1.3,Win32,60,0.31731,,,,,,,,,,,,,,,,,,,,,,,,,,,,,,,,,,,,,,,,,,,,
,,,,,,,,,,,,a,Correct!,0,109,109,41,1,t3.png,t2.png,1,0.90855,19,female,2020-10-13_20h20.57.075,torte-q,2020.1.3,Win32,60,0.96245,,,,,,,,,,,,,,,,,,,,,,,,,,,,,,,,,,,,,,,,,,,,
,,,,,,,,,,,,a,Correct!,0,110,110,76,1,t3.png,t2.png,1,0.90855,19,female,2020-10-13_20h20.57.075,torte-q,2020.1.3,Win32,60,0.441495,,,,,,,,,,,,,,,,,,,,,,,,,,,,,,,,,,,,,,,,,,,,
,,,,,,,,,,,,a,Correct!,0,111,111,113,1,t5.png,t4.png,1,0.9,19,female,2020-10-13_20h20.57.075,torte-q,2020.1.3,Win32,60,0.420745,,,,,,,,,,,,,,,,,,,,,,,,,,,,,,,,,,,,,,,,,,,,
,,,,,,,,,,,,a,Correct!,0,112,112,39,1,t3.png,t2.png,1,0.90855,19,female,2020-10-13_20h20.57.075,torte-q,2020.1.3,Win32,60,0.41726,,,,,,,,,,,,,,,,,,,,,,,,,,,,,,,,,,,,,,,,,,,,
,,,,,,,,,,,,a,Incorrect,0,113,113,30,1,t3.png,t1.png,2,0.056466,19,female,2020-10-13_20h20.57.075,torte-q,2020.1.3,Win32,60,0.674555,,,,,,,,,,,,,,,,,,,,,,,,,,,,,,,,,,,,,,,,,,,,
,,,,,,,,,,,,l,Incorrect,0,114,114,59,1,t5.png,t4.png,1,0.9,19,female,2020-10-13_20h20.57.075,torte-q,2020.1.3,Win32,60,0.573855,,,,,,,,,,,,,,,,,,,,,,,,,,,,,,,,,,,,,,,,,,,,
,,,,,,,,,,,,a,Incorrect,0,115,115,36,1,t3.png,t1.png,2,0.0565,19,female,2020-10-13_20h20.57.075,torte-q,2020.1.3,Win32,60,0.35913,,,,,,,,,,,,,,,,,,,,,,,,,,,,,,,,,,,,,,,,,,,,
,,,,,,,,,,,,l,Incorrect,0,116,116,70,1,t5.png,t5.png,0,0.978,19,female,2020-10-13_20h20.57.075,torte-q,2020.1.3,Win32,60,0.358085,,,,,,,,,,,,,,,,,,,,,,,,,,,,,,,,,,,,,,,,,,,,
,,,,,,,,,,,,a,Incorrect,0,117,117,14,1,t2.png,t4.png,2,0.059078,19,female,2020-10-13_20h20.57.075,torte-q,2020.1.3,Win32,60,0.322895,,,,,,,,,,,,,,,,,,,,,,,,,,,,,,,,,,,,,,,,,,,,
,,,,,,,,,,,,l,Correct!,0,118,118,37,1,t1.png,t4.png,3,0.0000131,19,female,2020-10-13_20h20.57.075,torte-q,2020.1.3,Win32,60,0.387495,,,,,,,,,,,,,,,,,,,,,,,,,,,,,,,,,,,,,,,,,,,,
,,,,,,,,,,,,a,Incorrect,0,119,119,53,1,t3.png,t1.png,2,0.056466,19,female,2020-10-13_20h20.57.075,torte-q,2020.1.3,Win32,60,0.57456,,,,,,,,,,,,,,,,,,,,,,,,,,,,,,,,,,,,,,,,,,,,
,,,,,,,,,,,,l,Correct!,,,,,,t1.png,t5.png,4,9.55E-11,19,female,2020-10-13_20h20.57.075,torte-q,2020.1.3,Win32,60,1.356095,space,3.98143,space,9.98231,0,0,0,12,1,,,,,,,,,,,,,,,,,,,,,,,,,,,,,,,,,,,
,,,,,,,,,,,,l,Correct!,,,,,,t1.png,t2.png,1,0.90025,19,female,2020-10-13_20h20.57.075,torte-q,2020.1.3,Win32,60,0.86482,,,,,0,1,1,33,1,,,,,,,,,,,,,,,,,,,,,,,,,,,,,,,,,,,
,,,,,,,,,,,,a,Correct!,,,,,,t5.png,t4.png,1,0.9,19,female,2020-10-13_20h20.57.075,torte-q,2020.1.3,Win32,60,0.46687,,,,,0,2,2,49,1,,,,,,,,,,,,,,,,,,,,,,,,,,,,,,,,,,,
,,,,,,,,,,,,l,Correct!,,,,,,t1.png,t4.png,3,0.0000131,19,female,2020-10-13_20h20.57.075,torte-q,2020.1.3,Win32,60,0.889645,,,,,0,3,3,81,1,,,,,,,,,,,,,,,,,,,,,,,,,,,,,,,,,,,
,,,,,,,,,,,,a,Incorrect,,,,,,t3.png,t5.png,2,0.056466,19,female,2020-10-13_20h20.57.075,torte-q,2020.1.3,Win32,60,0.84004,,,,,0,4,4,6,1,,,,,,,,,,,,,,,,,,,,,,,,,,,,,,,,,,,
,,,,,,,,,,,,a,Incorrect,,,,,,t5.png,t3.png,2,0.056466,19,female,2020-10-13_20h20.57.075,torte-q,2020.1.3,Win32,60,0.70561,,,,,0,5,5,108,1,,,,,,,,,,,,,,,,,,,,,,,,,,,,,,,,,,,
,,,,,,,,,,,,l,Correct!,,,,,,t2.png,t5.png,3,0.0000131,19,female,2020-10-13_20h20.57.075,torte-q,2020.1.3,Win32,60,0.47466,,,,,0,6,6,66,1,,,,,,,,,,,,,,,,,,,,,,,,,,,,,,,,,,,
,,,,,,,,,,,,a,Incorrect,,,,,,t5.png,t1.png,4,9.55E-11,19,female,2020-10-13_20h20.57.075,torte-q,2020.1.3,Win32,60,0.547245,,,,,0,7,7,43,1,,,,,,,,,,,,,,,,,,,,,,,,,,,,,,,,,,,
,,,,,,,,,,,,l,Correct!,,,,,,t1.png,t5.png,4,9.55E-11,19,female,2020-10-13_20h20.57.075,torte-q,2020.1.3,Win32,60,0.41933,,,,,0,8,8,55,1,,,,,,,,,,,,,,,,,,,,,,,,,,,,,,,,,,,
,,,,,,,,,,,,a,Correct!,,,,,,t4.png,t4.png,0,0.98115,19,female,2020-10-13_20h20.57.075,torte-q,2020.1.3,Win32,60,1.43541,,,,,0,9,9,90,1,,,,,,,,,,,,,,,,,,,,,,,,,,,,,,,,,,,
,,,,,,,,,,,,a,Correct!,,,,,,t2.png,t1.png,1,0.90025,19,female,2020-10-13_20h20.57.075,torte-q,2020.1.3,Win32,60,0.8813,,,,,0,10,10,19,1,,,,,,,,,,,,,,,,,,,,,,,,,,,,,,,,,,,
,,,,,,,,,,,,a,Incorrect,,,,,,t5.png,t3.png,2,0.0565,19,female,2020-10-13_20h20.57.075,torte-q,2020.1.3,Win32,60,0.929585,,,,,0,11,11,39,1,,,,,,,,,,,,,,,,,,,,,,,,,,,,,,,,,,,
,,,,,,,,,,,,l,Incorrect,,,,,,t3.png,t4.png,1,0.909,19,female,2020-10-13_20h20.57.075,torte-q,2020.1.3,Win32,60,0.763065,,,,,0,12,12,89,1,,,,,,,,,,,,,,,,,,,,,,,,,,,,,,,,,,,
,,,,,,,,,,,,a,Incorrect,,,,,,t5.png,t1.png,4,9.55E-11,19,female,2020-10-13_20h20.57.075,torte-q,2020.1.3,Win32,60,0.5289,,,,,0,13,13,102,1,,,,,,,,,,,,,,,,,,,,,,,,,,,,,,,,,,,
,,,,,,,,,,,,l,Incorrect,,,,,,t1.png,t2.png,1,0.90025,19,female,2020-10-13_20h20.57.075,torte-q,2020.1.3,Win32,60,0.556165,,,,,0,14,14,112,1,,,,,,,,,,,,,,,,,,,,,,,,,,,,,,,,,,,
,,,,,,,,,,,,a,Incorrect,,,,,,t3.png,t1.png,2,0.056466,19,female,2020-10-13_20h20.57.075,torte-q,2020.1.3,Win32,60,0.496385,,,,,0,15,15,0,1,,,,,,,,,,,,,,,,,,,,,,,,,,,,,,,,,,,
,,,,,,,,,,,,l,Incorrect,,,,,,t2.png,t3.png,1,0.90855,19,female,2020-10-13_20h20.57.075,torte-q,2020.1.3,Win32,60,0.57989,,,,,0,16,16,111,1,,,,,,,,,,,,,,,,,,,,,,,,,,,,,,,,,,,
,,,,,,,,,,,,l,Incorrect,,,,,,t2.png,t3.png,1,0.909,19,female,2020-10-13_20h20.57.075,torte-q,2020.1.3,Win32,60,2.041175,,,,,0,17,17,74,1,,,,,,,,,,,,,,,,,,,,,,,,,,,,,,,,,,,
,,,,,,,,,,,,a,Correct!,,,,,,t5.png,t5.png,0,0.97829,19,female,2020-10-13_20h20.57.075,torte-q,2020.1.3,Win32,60,1.492635,,,,,0,18,18,25,1,,,,,,,,,,,,,,,,,,,,,,,,,,,,,,,,,,,
,,,,,,,,,,,,a,Incorrect,,,,,,t5.png,t2.png,3,0.0000131,19,female,2020-10-13_20h20.57.075,torte-q,2020.1.3,Win32,60,0.567755,,,,,0,19,19,51,1,,,,,,,,,,,,,,,,,,,,,,,,,,,,,,,,,,,
,,,,,,,,,,,,a,Incorrect,,,,,,t5.png,t1.png,4,9.55E-11,19,female,2020-10-13_20h20.57.075,torte-q,2020.1.3,Win32,60,0.55088,,,,,0,20,20,100,1,,,,,,,,,,,,,,,,,,,,,,,,,,,,,,,,,,,
,,,,,,,,,,,,a,Correct!,,,,,,t5.png,t5.png,0,0.97829,19,female,2020-10-13_20h20.57.075,torte-q,2020.1.3,Win32,60,1.110965,,,,,0,21,21,73,1,,,,,,,,,,,,,,,,,,,,,,,,,,,,,,,,,,,
,,,,,,,,,,,,l,Incorrect,,,,,,t2.png,t3.png,1,0.90855,19,female,2020-10-13_20h20.57.075,torte-q,2020.1.3,Win32,60,0.43416,,,,,0,22,22,68,1,,,,,,,,,,,,,,,,,,,,,,,,,,,,,,,,,,,
,,,,,,,,,,,,l,Correct!,,,,,,t3.png,t5.png,2,0.056466,19,female,2020-10-13_20h20.57.075,torte-q,2020.1.3,Win32,60,0.450835,,,,,0,23,23,14,1,,,,,,,,,,,,,,,,,,,,,,,,,,,,,,,,,,,
,,,,,,,,,,,,a,Incorrect,,,,,,t3.png,t1.png,2,0.056466,19,female,2020-10-13_20h20.57.075,torte-q,2020.1.3,Win32,60,0.85166,,,,,0,24,24,32,1,,,,,,,,,,,,,,,,,,,,,,,,,,,,,,,,,,,
,,,,,,,,,,,,l,Incorrect,,,,,,t4.png,t4.png,0,0.98115,19,female,2020-10-13_20h20.57.075,torte-q,2020.1.3,Win32,60,1.02962,,,,,0,25,25,80,1,,,,,,,,,,,,,,,,,,,,,,,,,,,,,,,,,,,
,,,,,,,,,,,,l,Correct!,,,,,,t1.png,t3.png,2,0.056466,19,female,2020-10-13_20h20.57.075,torte-q,2020.1.3,Win32,60,0.534485,,,,,0,26,26,87,1,,,,,,,,,,,,,,,,,,,,,,,,,,,,,,,,,,,
,,,,,,,,,,,,a,Correct!,,,,,,t4.png,t3.png,1,0.90855,19,female,2020-10-13_20h20.57.075,torte-q,2020.1.3,Win32,60,0.461835,,,,,0,27,27,35,1,,,,,,,,,,,,,,,,,,,,,,,,,,,,,,,,,,,
,,,,,,,,,,,,a,Correct!,,,,,,t5.png,t5.png,0,0.97829,19,female,2020-10-13_20h20.57.075,torte-q,2020.1.3,Win32,60,0.92168,,,,,0,28,28,94,1,,,,,,,,,,,,,,,,,,,,,,,,,,,,,,,,,,,
,,,,,,,,,,,,a,Correct!,,,,,,t4.png,t4.png,0,0.98115,19,female,2020-10-13_20h20.57.075,torte-q,2020.1.3,Win32,60,0.49517,,,,,0,29,29,21,1,,,,,,,,,,,,,,,,,,,,,,,,,,,,,,,,,,,
,,,,,,,,,,,,l,Incorrect,,,,,,t2.png,t4.png,2,0.059078,19,female,2020-10-13_20h20.57.075,torte-q,2020.1.3,Win32,60,1.37429,,,,,0,30,30,11,1,,,,,,,,,,,,,,,,,,,,,,,,,,,,,,,,,,,
,,,,,,,,,,,,l,Incorrect,,,,,,t5.png,t5.png,0,0.97829,19,female,2020-10-13_20h20.57.075,torte-q,2020.1.3,Win32,60,0.699425,,,,,0,31,31,70,1,,,,,,,,,,,,,,,,,,,,,,,,,,,,,,,,,,,
,,,,,,,,,,,,l,Incorrect,,,,,,t1.png,t1.png,0,0.97829,19,female,2020-10-13_20h20.57.075,torte-q,2020.1.3,Win32,60,0.500705,,,,,0,32,32,78,1,,,,,,,,,,,,,,,,,,,,,,,,,,,,,,,,,,,
,,,,,,,,,,,,l,Incorrect,,,,,,t4.png,t5.png,1,0.9,19,female,2020-10-13_20h20.57.075,torte-q,2020.1.3,Win32,60,1.182365,,,,,0,33,33,115,1,,,,,,,,,,,,,,,,,,,,,,,,,,,,,,,,,,,
,,,,,,,,,,,,l,Correct!,,,,,,t1.png,t4.png,3,0.0000131,19,female,2020-10-13_20h20.57.075,torte-q,2020.1.3,Win32,60,0.86853,,,,,0,34,34,107,1,,,,,,,,,,,,,,,,,,,,,,,,,,,,,,,,,,,
,,,,,,,,,,,,l,Incorrect,,,,,,t4.png,t5.png,1,0.90025,19,female,2020-10-13_20h20.57.075,torte-q,2020.1.3,Win32,60,1.245735,,,,,0,35,35,47,1,,,,,,,,,,,,,,,,,,,,,,,,,,,,,,,,,,,
,,,,,,,,,,,,a,Correct!,,,,,,t5.png,t4.png,1,0.90025,19,female,2020-10-13_20h20.57.075,torte-q,2020.1.3,Win32,60,1.01107,,,,,0,36,36,26,1,,,,,,,,,,,,,,,,,,,,,,,,,,,,,,,,,,,
,,,,,,,,,,,,a,Incorrect,,,,,,t5.png,t2.png,3,0.0000131,19,female,2020-10-13_20h20.57.075,torte-q,2020.1.3,Win32,60,1.376065,,,,,0,37,37,98,1,,,,,,,,,,,,,,,,,,,,,,,,,,,,,,,,,,,
,,,,,,,,,,,,,Too slow :(,,,,,,t2.png,t3.png,1,0.90855,19,female,2020-10-13_20h20.57.075,torte-q,2020.1.3,Win32,60,,,,,,0,38,38,65,1,,,,,,,,,,,,,,,,,,,,,,,,,,,,,,,,,,,
,,,,,,,,,,,,,Too slow :(,,,,,,t5.png,t4.png,1,0.90025,19,female,2020-10-13_20h20.57.075,torte-q,2020.1.3,Win32,60,,,,,,0,39,39,34,1,,,,,,,,,,,,,,,,,,,,,,,,,,,,,,,,,,,
,,,,,,,,,,,,a,Incorrect,,,,,,t5.png,t2.png,3,0.0000131,19,female,2020-10-13_20h20.57.075,torte-q,2020.1.3,Win32,60,0.8603,,,,,0,40,40,91,1,,,,,,,,,,,,,,,,,,,,,,,,,,,,,,,,,,,
,,,,,,,,,,,,l,Correct!,,,,,,t1.png,t3.png,2,0.056466,19,female,2020-10-13_20h20.57.075,torte-q,2020.1.3,Win32,60,0.471185,,,,,0,41,41,69,1,,,,,,,,,,,,,,,,,,,,,,,,,,,,,,,,,,,
,,,,,,,,,,,,a,Incorrect,,,,,,t4.png,t1.png,3,0.0000131,19,female,2020-10-13_20h20.57.075,torte-q,2020.1.3,Win32,60,0.434405,,,,,0,42,42,42,1,,,,,,,,,,,,,,,,,,,,,,,,,,,,,,,,,,,
,,,,,,,,,,,,a,Incorrect,,,,,,t5.png,t2.png,3,0.0000131,19,female,2020-10-13_20h20.57.075,torte-q,2020.1.3,Win32,60,0.434355,,,,,0,43,43,116,1,,,,,,,,,,,,,,,,,,,,,,,,,,,,,,,,,,,
,,,,,,,,,,,,a,Incorrect,,,,,,t3.png,t1.png,2,0.056466,19,female,2020-10-13_20h20.57.075,torte-q,2020.1.3,Win32,60,0.58891,,,,,0,44,44,29,1,,,,,,,,,,,,,,,,,,,,,,,,,,,,,,,,,,,
,,,,,,,,,,,,a,Correct!,,,,,,t4.png,t3.png,1,0.909,19,female,2020-10-13_20h20.57.075,torte-q,2020.1.3,Win32,60,1.067215,,,,,0,45,45,46,1,,,,,,,,,,,,,,,,,,,,,,,,,,,,,,,,,,,
,,,,,,,,,,,,l,Incorrect,,,,,,t1.png,t2.png,1,0.9,19,female,2020-10-13_20h20.57.075,torte-q,2020.1.3,Win32,60,0.597565,,,,,0,46,46,1,1,,,,,,,,,,,,,,,,,,,,,,,,,,,,,,,,,,,
,,,,,,,,,,,,l,Incorrect,,,,,,t3.png,t4.png,1,0.909,19,female,2020-10-13_20h20.57.075,torte-q,2020.1.3,Win32,60,0.62539,,,,,0,47,47,82,1,,,,,,,,,,,,,,,,,,,,,,,,,,,,,,,,,,,
,,,,,,,,,,,,a,Incorrect,,,,,,t4.png,t1.png,3,0.0000131,19,female,2020-10-13_20h20.57.075,torte-q,2020.1.3,Win32,60,0.52984,,,,,0,48,48,48,1,,,,,,,,,,,,,,,,,,,,,,,,,,,,,,,,,,,
,,,,,,,,,,,,l,Correct!,,,,,,t2.png,t4.png,2,0.059078,19,female,2020-10-13_20h20.57.075,torte-q,2020.1.3,Win32,60,0.788655,,,,,0,49,49,24,1,,,,,,,,,,,,,,,,,,,,,,,,,,,,,,,,,,,
,,,,,,,,,,,,a,Correct!,,,,,,t3.png,t2.png,1,0.909,19,female,2020-10-13_20h20.57.075,torte-q,2020.1.3,Win32,60,1.260285,,,,,0,50,50,3,1,,,,,,,,,,,,,,,,,,,,,,,,,,,,,,,,,,,
,,,,,,,,,,,,a,Correct!,,,,,,t3.png,t2.png,1,0.909,19,female,2020-10-13_20h20.57.075,torte-q,2020.1.3,Win32,60,0.76489,,,,,0,51,51,23,1,,,,,,,,,,,,,,,,,,,,,,,,,,,,,,,,,,,
,,,,,,,,,,,,a,Incorrect,,,,,,t5.png,t3.png,2,0.056466,19,female,2020-10-13_20h20.57.075,torte-q,2020.1.3,Win32,60,1.06352,,,,,0,52,52,56,1,,,,,,,,,,,,,,,,,,,,,,,,,,,,,,,,,,,
,,,,,,,,,,,,a,Incorrect,,,,,,t4.png,t2.png,2,0.0591,19,female,2020-10-13_20h20.57.075,torte-q,2020.1.3,Win32,60,1.220265,,,,,0,53,53,36,1,,,,,,,,,,,,,,,,,,,,,,,,,,,,,,,,,,,
,,,,,,,,,,,,l,Correct!,,,,,,t3.png,t5.png,2,0.0565,19,female,2020-10-13_20h20.57.075,torte-q,2020.1.3,Win32,60,0.484475,,,,,0,54,54,30,1,,,,,,,,,,,,,,,,,,,,,,,,,,,,,,,,,,,
,,,,,,,,,,,,l,Incorrect,,,,,,t2.png,t2.png,0,0.98115,19,female,2020-10-13_20h20.57.075,torte-q,2020.1.3,Win32,60,0.70429,,,,,0,55,55,59,1,,,,,,,,,,,,,,,,,,,,,,,,,,,,,,,,,,,
,,,,,,,,,,,,l,Correct!,,,,,,t2.png,t5.png,3,0.0000131,19,female,2020-10-13_20h20.57.075,torte-q,2020.1.3,Win32,60,0.81311,,,,,0,56,56,95,1,,,,,,,,,,,,,,,,,,,,,,,,,,,,,,,,,,,
,,,,,,,,,,,,a,Incorrect,,,,,,t4.png,t2.png,2,0.059078,19,female,2020-10-13_20h20.57.075,torte-q,2020.1.3,Win32,60,0.663335,,,,,0,57,57,110,1,,,,,,,,,,,,,,,,,,,,,,,,,,,,,,,,,,,
,,,,,,,,,,,,l,Incorrect,,,,,,t1.png,t1.png,0,0.978,19,female,2020-10-13_20h20.57.075,torte-q,2020.1.3,Win32,60,0.526675,,,,,0,58,58,28,1,,,,,,,,,,,,,,,,,,,,,,,,,,,,,,,,,,,
,,,,,,,,,,,,l,Correct!,,,,,,t1.png,t4.png,3,0.0000131,19,female,2020-10-13_20h20.57.075,torte-q,2020.1.3,Win32,60,1.213635,,,,,0,59,59,17,1,,,,,,,,,,,,,,,,,,,,,,,,,,,,,,,,,,,
,,,,,,,,,,,,a,Incorrect,,,,,,t5.png,t1.png,4,9.55E-11,19,female,2020-10-13_20h20.57.075,torte-q,2020.1.3,Win32,60,0.974305,,,,,0,60,60,22,1,,,,,,,,,,,,,,,,,,,,,,,,,,,,,,,,,,,
,,,,,,,,,,,,a,Correct!,,,,,,t2.png,t1.png,1,0.90025,19,female,2020-10-13_20h20.57.075,torte-q,2020.1.3,Win32,60,2.4473,,,,,0,61,61,62,1,,,,,,,,,,,,,,,,,,,,,,,,,,,,,,,,,,,
,,,,,,,,,,,,l,Incorrect,,,,,,t3.png,t5.png,2,0.0565,19,female,2020-10-13_20h20.57.075,torte-q,2020.1.3,Win32,60,1.36454,,,,,0,62,62,83,1,,,,,,,,,,,,,,,,,,,,,,,,,,,,,,,,,,,
,,,,,,,,,,,,l,Correct!,,,,,,t2.png,t4.png,2,0.059078,19,female,2020-10-13_20h20.57.075,torte-q,2020.1.3,Win32,60,1.91286,,,,,0,63,63,77,1,,,,,,,,,,,,,,,,,,,,,,,,,,,,,,,,,,,
,,,,,,,,,,,,a,Correct!,,,,,,t4.png,t3.png,1,0.909,19,female,2020-10-13_20h20.57.075,torte-q,2020.1.3,Win32,60,1.429645,,,,,0,64,64,20,1,,,,,,,,,,,,,,,,,,,,,,,,,,,,,,,,,,,
,,,,,,,,,,,,l,Correct!,,,,,,t2.png,t5.png,3,0.0000131,19,female,2020-10-13_20h20.57.075,torte-q,2020.1.3,Win32,60,1.28618,,,,,0,65,65,8,1,,,,,,,,,,,,,,,,,,,,,,,,,,,,,,,,,,,
,,,,,,,,,,,,a,Correct!,,,,,,t2.png,t1.png,1,0.9,19,female,2020-10-13_20h20.57.075,torte-q,2020.1.3,Win32,60,1.018915,,,,,0,66,66,118,1,,,,,,,,,,,,,,,,,,,,,,,,,,,,,,,,,,,
,,,,,,,,,,,,l,Correct!,,,,,,t2.png,t5.png,3,0.0000131,19,female,2020-10-13_20h20.57.075,torte-q,2020.1.3,Win32,60,1.45403,,,,,0,67,67,40,1,,,,,,,,,,,,,,,,,,,,,,,,,,,,,,,,,,,
,,,,,,,,,,,,a,Incorrect,,,,,,t5.png,t3.png,2,0.056466,19,female,2020-10-13_20h20.57.075,torte-q,2020.1.3,Win32,60,1.20041,,,,,0,68,68,114,1,,,,,,,,,,,,,,,,,,,,,,,,,,,,,,,,,,,
,,,,,,,,,,,,l,Correct!,,,,,,t2.png,t4.png,2,0.059078,19,female,2020-10-13_20h20.57.075,torte-q,2020.1.3,Win32,60,0.92646,,,,,0,69,69,37,1,,,,,,,,,,,,,,,,,,,,,,,,,,,,,,,,,,,
,,,,,,,,,,,,l,Incorrect,,,,,,t2.png,t2.png,0,0.98115,19,female,2020-10-13_20h20.57.075,torte-q,2020.1.3,Win32,60,1.863295,,,,,0,70,70,57,1,,,,,,,,,,,,,,,,,,,,,,,,,,,,,,,,,,,
,,,,,,,,,,,,l,Correct!,,,,,,t3.png,t5.png,2,0.056466,19,female,2020-10-13_20h20.57.075,torte-q,2020.1.3,Win32,60,1.06541,,,,,0,71,71,44,1,,,,,,,,,,,,,,,,,,,,,,,,,,,,,,,,,,,
,,,,,,,,,,,,l,Correct!,,,,,,t2.png,t5.png,3,0.0000131,19,female,2020-10-13_20h20.57.075,torte-q,2020.1.3,Win32,60,0.565425,,,,,0,72,72,104,1,,,,,,,,,,,,,,,,,,,,,,,,,,,,,,,,,,,
,,,,,,,,,,,,l,Correct!,,,,,,t1.png,t3.png,2,0.056466,19,female,2020-10-13_20h20.57.075,torte-q,2020.1.3,Win32,60,0.66249,,,,,0,73,73,99,1,,,,,,,,,,,,,,,,,,,,,,,,,,,,,,,,,,,
,,,,,,,,,,,,a,Correct!,,,,,,t2.png,t2.png,0,0.98115,19,female,2020-10-13_20h20.57.075,torte-q,2020.1.3,Win32,60,1.28381,,,,,0,74,74,2,1,,,,,,,,,,,,,,,,,,,,,,,,,,,,,,,,,,,
,,,,,,,,,,,,a,Correct!,,,,,,t2.png,t2.png,0,0.981,19,female,2020-10-13_20h20.57.075,torte-q,2020.1.3,Win32,60,0.930475,,,,,0,75,75,101,1,,,,,,,,,,,,,,,,,,,,,,,,,,,,,,,,,,,
,,,,,,,,,,,,a,Correct!,,,,,,t4.png,t4.png,0,0.98115,19,female,2020-10-13_20h20.57.075,torte-q,2020.1.3,Win32,60,1.496205,,,,,0,76,76,52,1,,,,,,,,,,,,,,,,,,,,,,,,,,,,,,,,,,,
,,,,,,,,,,,,l,Correct!,,,,,,t1.png,t4.png,3,0.0000131,19,female,2020-10-13_20h20.57.075,torte-q,2020.1.3,Win32,60,0.573325,,,,,0,77,77,92,1,,,,,,,,,,,,,,,,,,,,,,,,,,,,,,,,,,,
,,,,,,,,,,,,a,Correct!,,,,,,t3.png,t2.png,1,0.90855,19,female,2020-10-13_20h20.57.075,torte-q,2020.1.3,Win32,60,0.98968,,,,,0,78,78,97,1,,,,,,,,,,,,,,,,,,,,,,,,,,,,,,,,,,,
,,,,,,,,,,,,l,Incorrect,,,,,,t1.png,t1.png,0,0.978,19,female,2020-10-13_20h20.57.075,torte-q,2020.1.3,Win32,60,1.304655,,,,,0,79,79,54,1,,,,,,,,,,,,,,,,,,,,,,,,,,,,,,,,,,,
,,,,,,,,,,,,l,Incorrect,,,,,,t4.png,t5.png,1,0.90025,19,female,2020-10-13_20h20.57.075,torte-q,2020.1.3,Win32,60,1.04748,,,,,0,80,80,103,1,,,,,,,,,,,,,,,,,,,,,,,,,,,,,,,,,,,
,,,,,,,,,,,,,Too slow :(,,,,,,t5.png,t4.png,1,0.90025,19,female,2020-10-13_20h20.57.075,torte-q,2020.1.3,Win32,60,,,,,,0,81,81,27,1,,,,,,,,,,,,,,,,,,,,,,,,,,,,,,,,,,,
,,,,,,,,,,,,a,Correct!,,,,,,t4.png,t4.png,0,0.98115,19,female,2020-10-13_20h20.57.075,torte-q,2020.1.3,Win32,60,1.10405,,,,,0,82,82,79,1,,,,,,,,,,,,,,,,,,,,,,,,,,,,,,,,,,,
,,,,,,,,,,,,l,Correct!,,,,,,t1.png,t5.png,4,9.55E-11,19,female,2020-10-13_20h20.57.075,torte-q,2020.1.3,Win32,60,0.536105,,,,,0,83,83,16,1,,,,,,,,,,,,,,,,,,,,,,,,,,,,,,,,,,,
,,,,,,,,,,,,l,Correct!,,,,,,t1.png,t4.png,3,0.0000131,19,female,2020-10-13_20h20.57.075,torte-q,2020.1.3,Win32,60,0.82155,,,,,0,84,84,50,1,,,,,,,,,,,,,,,,,,,,,,,,,,,,,,,,,,,
,,,,,,,,,,,,l,Incorrect,,,,,,t2.png,t1.png,1,0.90025,19,female,2020-10-13_20h20.57.075,torte-q,2020.1.3,Win32,60,1.102095,,,,,0,85,85,4,1,,,,,,,,,,,,,,,,,,,,,,,,,,,,,,,,,,,
,,,,,,,,,,,,a,Incorrect,,,,,,t4.png,t1.png,3,0.0000131,19,female,2020-10-13_20h20.57.075,torte-q,2020.1.3,Win32,60,1.067205,,,,,0,86,86,13,1,,,,,,,,,,,,,,,,,,,,,,,,,,,,,,,,,,,
,,,,,,,,,,,,l,Incorrect,,,,,,t4.png,t5.png,1,0.90025,19,female,2020-10-13_20h20.57.075,torte-q,2020.1.3,Win32,60,1.00001,,,,,0,87,87,113,1,,,,,,,,,,,,,,,,,,,,,,,,,,,,,,,,,,,
,,,,,,,,,,,,l,Incorrect,,,,,,t1.png,t2.png,1,0.90025,19,female,2020-10-13_20h20.57.075,torte-q,2020.1.3,Win32,60,1.39687,,,,,0,88,88,72,1,,,,,,,,,,,,,,,,,,,,,,,,,,,,,,,,,,,
,,,,,,,,,,,,l,Correct!,,,,,,t1.png,t5.png,4,9.55E-11,19,female,2020-10-13_20h20.57.075,torte-q,2020.1.3,Win32,60,1.047085,,,,,0,89,89,85,1,,,,,,,,,,,,,,,,,,,,,,,,,,,,,,,,,,,
,,,,,,,,,,,,l,Incorrect,,,,,,t1.png,t1.png,0,0.97829,19,female,2020-10-13_20h20.57.075,torte-q,2020.1.3,Win32,60,0.7147,,,,,0,90,90,9,1,,,,,,,,,,,,,,,,,,,,,,,,,,,,,,,,,,,
,,,,,,,,,,,,a,Correct!,,,,,,t4.png,t3.png,1,0.90855,19,female,2020-10-13_20h20.57.075,torte-q,2020.1.3,Win32,60,1.50146,,,,,0,91,91,45,1,,,,,,,,,,,,,,,,,,,,,,,,,,,,,,,,,,,
,,,,,,,,,,,,a,Incorrect,,,,,,t5.png,t1.png,4,9.55E-11,19,female,2020-10-13_20h20.57.075,torte-q,2020.1.3,Win32,60,1.07359,,,,,0,92,92,71,1,,,,,,,,,,,,,,,,,,,,,,,,,,,,,,,,,,,
,,,,,,,,,,,,a,Correct!,,,,,,t4.png,t2.png,2,0.059078,19,female,2020-10-13_20h20.57.075,torte-q,2020.1.3,Win32,60,1.266945,,,,,0,93,93,88,1,,,,,,,,,,,,,,,,,,,,,,,,,,,,,,,,,,,
,,,,,,,,,,,,a,Correct!,,,,,,t5.png,t4.png,1,0.9,19,female,2020-10-13_20h20.57.075,torte-q,2020.1.3,Win32,60,0.62984,,,,,0,94,94,76,1,,,,,,,,,,,,,,,,,,,,,,,,,,,,,,,,,,,
,,,,,,,,,,,,l,Correct!,,,,,,t1.png,t3.png,2,0.056466,19,female,2020-10-13_20h20.57.075,torte-q,2020.1.3,Win32,60,0.55129,,,,,0,95,95,63,1,,,,,,,,,,,,,,,,,,,,,,,,,,,,,,,,,,,
,,,,,,,,,,,,l,Correct!,,,,,,t1.png,t5.png,4,9.55E-11,19,female,2020-10-13_20h20.57.075,torte-q,2020.1.3,Win32,60,1.10176,,,,,0,96,96,41,1,,,,,,,,,,,,,,,,,,,,,,,,,,,,,,,,,,,
,,,,,,,,,,,,a,Incorrect,,,,,,t3.png,t1.png,2,0.056466,19,female,2020-10-13_20h20.57.075,torte-q,2020.1.3,Win32,60,0.72568,,,,,0,97,97,64,1,,,,,,,,,,,,,,,,,,,,,,,,,,,,,,,,,,,
,,,,,,,,,,,,l,Correct!,,,,,,t2.png,t4.png,2,0.0591,19,female,2020-10-13_20h20.57.075,torte-q,2020.1.3,Win32,60,0.691915,,,,,0,98,98,15,1,,,,,,,,,,,,,,,,,,,,,,,,,,,,,,,,,,,
,,,,,,,,,,,,l,Incorrect,,,,,,t1.png,t2.png,1,0.90025,19,female,2020-10-13_20h20.57.075,torte-q,2020.1.3,Win32,60,1.01769,,,,,0,99,99,105,1,,,,,,,,,,,,,,,,,,,,,,,,,,,,,,,,,,,
,,,,,,,,,,,,a,Correct!,,,,,,t3.png,t4.png,1,0.90855,19,female,2020-10-13_20h20.57.075,torte-q,2020.1.3,Win32,60,1.53578,,,,,0,100,100,96,1,,,,,,,,,,,,,,,,,,,,,,,,,,,,,,,,,,,
,,,,,,,,,,,,a,Correct!,,,,,,t4.png,t3.png,1,0.90855,19,female,2020-10-13_20h20.57.075,torte-q,2020.1.3,Win32,60,0.993905,,,,,0,101,101,75,1,,,,,,,,,,,,,,,,,,,,,,,,,,,,,,,,,,,
,,,,,,,,,,,,l,Incorrect,,,,,,t3.png,t4.png,1,0.909,19,female,2020-10-13_20h20.57.075,torte-q,2020.1.3,Win32,60,0.55146,,,,,0,102,102,106,1,,,,,,,,,,,,,,,,,,,,,,,,,,,,,,,,,,,
,,,,,,,,,,,,a,Incorrect,,,,,,t2.png,t1.png,1,0.90025,19,female,2020-10-13_20h20.57.075,torte-q,2020.1.3,Win32,60,0.868025,,,,,0,103,103,5,1,,,,,,,,,,,,,,,,,,,,,,,,,,,,,,,,,,,
,,,,,,,,,,,,a,Incorrect,,,,,,t4.png,t2.png,2,0.059078,19,female,2020-10-13_20h20.57.075,torte-q,2020.1.3,Win32,60,0.45688,,,,,0,104,104,86,1,,,,,,,,,,,,,,,,,,,,,,,,,,,,,,,,,,,
,,,,,,,,,,,,l,Incorrect,,,,,,t3.png,t4.png,1,0.90855,19,female,2020-10-13_20h20.57.075,torte-q,2020.1.3,Win32,60,0.717835,,,,,0,105,105,84,1,,,,,,,,,,,,,,,,,,,,,,,,,,,,,,,,,,,
,,,,,,,,,,,,a,Incorrect,,,,,,t4.png,t1.png,3,0.0000131,19,female,2020-10-13_20h20.57.075,torte-q,2020.1.3,Win32,60,1.051475,,,,,0,106,106,61,1,,,,,,,,,,,,,,,,,,,,,,,,,,,,,,,,,,,
,,,,,,,,,,,,l,Incorrect,,,,,,t2.png,t3.png,1,0.90855,19,female,2020-10-13_20h20.57.075,torte-q,2020.1.3,Win32,60,0.620205,,,,,0,107,107,10,1,,,,,,,,,,,,,,,,,,,,,,,,,,,,,,,,,,,
,,,,,,,,,,,,a,Incorrect,,,,,,t3.png,t2.png,1,0.90855,19,female,2020-10-13_20h20.57.075,torte-q,2020.1.3,Win32,60,0.633525,,,,,0,108,108,53,1,,,,,,,,,,,,,,,,,,,,,,,,,,,,,,,,,,,
,,,,,,,,,,,,a,Correct!,,,,,,t3.png,t2.png,1,0.90855,19,female,2020-10-13_20h20.57.075,torte-q,2020.1.3,Win32,60,0.935755,,,,,0,109,109,18,1,,,,,,,,,,,,,,,,,,,,,,,,,,,,,,,,,,,
,,,,,,,,,,,,l,Incorrect,,,,,,t5.png,t5.png,0,0.978,19,female,2020-10-13_20h20.57.075,torte-q,2020.1.3,Win32,60,1.6968,,,,,0,110,110,117,1,,,,,,,,,,,,,,,,,,,,,,,,,,,,,,,,,,,
,,,,,,,,,,,,l,Incorrect,,,,,,t1.png,t1.png,0,0.97829,19,female,2020-10-13_20h20.57.075,torte-q,2020.1.3,Win32,60,1.11271,,,,,0,111,111,67,1,,,,,,,,,,,,,,,,,,,,,,,,,,,,,,,,,,,
,,,,,,,,,,,,a,Incorrect,,,,,,t5.png,t2.png,3,0.0000131,19,female,2020-10-13_20h20.57.075,torte-q,2020.1.3,Win32,60,1.371475,,,,,0,112,112,119,1,,,,,,,,,,,,,,,,,,,,,,,,,,,,,,,,,,,
,,,,,,,,,,,,a,Incorrect,,,,,,t4.png,t1.png,3,0.0000131,19,female,2020-10-13_20h20.57.075,torte-q,2020.1.3,Win32,60,0.913815,,,,,0,113,113,93,1,,,,,,,,,,,,,,,,,,,,,,,,,,,,,,,,,,,
,,,,,,,,,,,,l,Correct!,,,,,,t1.png,t3.png,2,0.056466,19,female,2020-10-13_20h20.57.075,torte-q,2020.1.3,Win32,60,0.937465,,,,,0,114,114,60,1,,,,,,,,,,,,,,,,,,,,,,,,,,,,,,,,,,,
,,,,,,,,,,,,l,Incorrect,,,,,,t2.png,t2.png,0,0.98115,19,female,2020-10-13_20h20.57.075,torte-q,2020.1.3,Win32,60,0.89655,,,,,0,115,115,7,1,,,,,,,,,,,,,,,,,,,,,,,,,,,,,,,,,,,
,,,,,,,,,,,,a,Incorrect,,,,,,t5.png,t3.png,2,0.056466,19,female,2020-10-13_20h20.57.075,torte-q,2020.1.3,Win32,60,0.770565,,,,,0,116,116,38,1,,,,,,,,,,,,,,,,,,,,,,,,,,,,,,,,,,,
,,,,,,,,,,,,a,Incorrect,,,,,,t3.png,t1.png,2,0.0565,19,female,2020-10-13_20h20.57.075,torte-q,2020.1.3,Win32,60,0.680105,,,,,0,117,117,31,1,,,,,,,,,,,,,,,,,,,,,,,,,,,,,,,,,,,
,,,,,,,,,,,,l,Incorrect,,,,,,t4.png,t5.png,1,0.90025,19,female,2020-10-13_20h20.57.075,torte-q,2020.1.3,Win32,60,1.16532,,,,,0,118,118,58,1,,,,,,,,,,,,,,,,,,,,,,,,,,,,,,,,,,,
,,,,,,,,,,,,a,Incorrect,,,,,,t4.png,t2.png,2,0.059078,19,female,2020-10-13_20h20.57.075,torte-q,2020.1.3,Win32,60,0.99646,,,,,0,119,119,109,1,,,,,,,,,,,,,,,,,,,,,,,,,,,,,,,,,,,
,,,,,,,,,,,,l,Correct!,,,,,,t2.png,t4.png,2,0.059078,19,female,2020-10-13_20h20.57.075,torte-q,2020.1.3,Win32,60,0.65652,space,1.35378,,,,,,,,space,9.943925,space,0.40784,0,0,0,77,1,,,,,,,,,,,,,,,,,,,,,,,,,,
,,,,,,,,,,,,a,Incorrect,,,,,,t4.png,t2.png,2,0.059078,19,female,2020-10-13_20h20.57.075,torte-q,2020.1.3,Win32,60,0.513795,,,,,,,,,,,,,,0,1,1,110,1,,,,,,,,,,,,,,,,,,,,,,,,,,
,,,,,,,,,,,,l,Correct!,,,,,,t1.png,t2.png,1,0.9,19,female,2020-10-13_20h20.57.075,torte-q,2020.1.3,Win32,60,0.35958,,,,,,,,,,,,,,0,2,2,1,1,,,,,,,,,,,,,,,,,,,,,,,,,,
,,,,,,,,,,,,l,Correct!,,,,,,t2.png,t4.png,2,0.059078,19,female,2020-10-13_20h20.57.075,torte-q,2020.1.3,Win32,60,0.45183,,,,,,,,,,,,,,0,3,3,37,1,,,,,,,,,,,,,,,,,,,,,,,,,,
,,,,,,,,,,,,l,Incorrect,,,,,,t3.png,t4.png,1,0.909,19,female,2020-10-13_20h20.57.075,torte-q,2020.1.3,Win32,60,0.68697,,,,,,,,,,,,,,0,4,4,82,1,,,,,,,,,,,,,,,,,,,,,,,,,,
,,,,,,,,,,,,a,Correct!,,,,,,t3.png,t2.png,1,0.90855,19,female,2020-10-13_20h20.57.075,torte-q,2020.1.3,Win32,60,0.48791,,,,,,,,,,,,,,0,5,5,53,1,,,,,,,,,,,,,,,,,,,,,,,,,,
,,,,,,,,,,,,a,Incorrect,,,,,,t4.png,t1.png,3,0.0000131,19,female,2020-10-13_20h20.57.075,torte-q,2020.1.3,Win32,60,0.526805,,,,,,,,,,,,,,0,6,6,13,1,,,,,,,,,,,,,,,,,,,,,,,,,,
,,,,,,,,,,,,a,Correct!,,,,,,t4.png,t3.png,1,0.90855,19,female,2020-10-13_20h20.57.075,torte-q,2020.1.3,Win32,60,1.18114,,,,,,,,,,,,,,0,7,7,35,1,,,,,,,,,,,,,,,,,,,,,,,,,,
,,,,,,,,,,,,a,Correct!,,,,,,t5.png,t4.png,1,0.9,19,female,2020-10-13_20h20.57.075,torte-q,2020.1.3,Win32,60,0.487375,,,,,,,,,,,,,,0,8,8,76,1,,,,,,,,,,,,,,,,,,,,,,,,,,
,,,,,,,,,,,,l,Incorrect,,,,,,t5.png,t5.png,0,0.97829,19,female,2020-10-13_20h20.57.075,torte-q,2020.1.3,Win32,60,1.09604,,,,,,,,,,,,,,0,9,9,73,1,,,,,,,,,,,,,,,,,,,,,,,,,,
,,,,,,,,,,,,a,Incorrect,,,,,,t4.png,t1.png,3,0.0000131,19,female,2020-10-13_20h20.57.075,torte-q,2020.1.3,Win32,60,0.94948,,,,,,,,,,,,,,0,10,10,61,1,,,,,,,,,,,,,,,,,,,,,,,,,,
,,,,,,,,,,,,a,Incorrect,,,,,,t5.png,t3.png,2,0.056466,19,female,2020-10-13_20h20.57.075,torte-q,2020.1.3,Win32,60,1.055815,,,,,,,,,,,,,,0,11,11,114,1,,,,,,,,,,,,,,,,,,,,,,,,,,
,,,,,,,,,,,,l,Incorrect,,,,,,t4.png,t5.png,1,0.90025,19,female,2020-10-13_20h20.57.075,torte-q,2020.1.3,Win32,60,0.89063,,,,,,,,,,,,,,0,12,12,47,1,,,,,,,,,,,,,,,,,,,,,,,,,,
,,,,,,,,,,,,,Too slow :(,,,,,,t4.png,t4.png,0,0.98115,19,female,2020-10-13_20h20.57.075,torte-q,2020.1.3,Win32,60,,,,,,,,,,,,,,,0,13,13,21,1,,,,,,,,,,,,,,,,,,,,,,,,,,
,,,,,,,,,,,,l,Incorrect,,,,,,t2.png,t2.png,0,0.98115,19,female,2020-10-13_20h20.57.075,torte-q,2020.1.3,Win32,60,0.787835,,,,,,,,,,,,,,0,14,14,2,1,,,,,,,,,,,,,,,,,,,,,,,,,,
,,,,,,,,,,,,l,Incorrect,,,,,,t2.png,t3.png,1,0.90855,19,female,2020-10-13_20h20.57.075,torte-q,2020.1.3,Win32,60,0.919415,,,,,,,,,,,,,,0,15,15,65,1,,,,,,,,,,,,,,,,,,,,,,,,,,
,,,,,,,,,,,,a,Correct!,,,,,,t4.png,t3.png,1,0.90855,19,female,2020-10-13_20h20.57.075,torte-q,2020.1.3,Win32,60,1.50106,,,,,,,,,,,,,,0,16,16,75,1,,,,,,,,,,,,,,,,,,,,,,,,,,
,,,,,,,,,,,,l,Correct!,,,,,,t2.png,t4.png,2,0.059078,19,female,2020-10-13_20h20.57.075,torte-q,2020.1.3,Win32,60,1.118235,,,,,,,,,,,,,,0,17,17,11,1,,,,,,,,,,,,,,,,,,,,,,,,,,
,,,,,,,,,,,,a,Correct!,,,,,,t5.png,t4.png,1,0.90025,19,female,2020-10-13_20h20.57.075,torte-q,2020.1.3,Win32,60,1.212975,,,,,,,,,,,,,,0,18,18,34,1,,,,,,,,,,,,,,,,,,,,,,,,,,
,,,,,,,,,,,,l,Incorrect,,,,,,t2.png,t2.png,0,0.98115,19,female,2020-10-13_20h20.57.075,torte-q,2020.1.3,Win32,60,0.85014,,,,,,,,,,,,,,0,19,19,7,1,,,,,,,,,,,,,,,,,,,,,,,,,,
,,,,,,,,,,,,a,Incorrect,,,,,,t4.png,t1.png,3,0.0000131,19,female,2020-10-13_20h20.57.075,torte-q,2020.1.3,Win32,60,0.56333,,,,,,,,,,,,,,0,20,20,93,1,,,,,,,,,,,,,,,,,,,,,,,,,,
,,,,,,,,,,,,l,Incorrect,,,,,,t1.png,t1.png,0,0.97829,19,female,2020-10-13_20h20.57.075,torte-q,2020.1.3,Win32,60,0.5663,,,,,,,,,,,,,,0,21,21,78,1,,,,,,,,,,,,,,,,,,,,,,,,,,
,,,,,,,,,,,,l,Correct!,,,,,,t2.png,t5.png,3,0.0000131,19,female,2020-10-13_20h20.57.075,torte-q,2020.1.3,Win32,60,0.48647,,,,,,,,,,,,,,0,22,22,95,1,,,,,,,,,,,,,,,,,,,,,,,,,,
,,,,,,,,,,,,l,Incorrect,,,,,,t4.png,t4.png,0,0.98115,19,female,2020-10-13_20h20.57.075,torte-q,2020.1.3,Win32,60,0.619125,,,,,,,,,,,,,,0,23,23,52,1,,,,,,,,,,,,,,,,,,,,,,,,,,
,,,,,,,,,,,,l,Correct!,,,,,,t2.png,t4.png,2,0.059078,19,female,2020-10-13_20h20.57.075,torte-q,2020.1.3,Win32,60,0.526135,,,,,,,,,,,,,,0,24,24,24,1,,,,,,,,,,,,,,,,,,,,,,,,,,
,,,,,,,,,,,,a,Correct!,,,,,,t2.png,t1.png,1,0.90025,19,female,2020-10-13_20h20.57.075,torte-q,2020.1.3,Win32,60,1.3058,,,,,,,,,,,,,,0,25,25,62,1,,,,,,,,,,,,,,,,,,,,,,,,,,
,,,,,,,,,,,,a,Correct!,,,,,,t3.png,t1.png,2,0.056466,19,female,2020-10-13_20h20.57.075,torte-q,2020.1.3,Win32,60,0.659135,,,,,,,,,,,,,,0,26,26,64,1,,,,,,,,,,,,,,,,,,,,,,,,,,
,,,,,,,,,,,,a,Correct!,,,,,,t2.png,t1.png,1,0.90025,19,female,2020-10-13_20h20.57.075,torte-q,2020.1.3,Win32,60,1.00166,,,,,,,,,,,,,,0,27,27,5,1,,,,,,,,,,,,,,,,,,,,,,,,,,
,,,,,,,,,,,,l,Correct!,,,,,,t1.png,t3.png,2,0.056466,19,female,2020-10-13_20h20.57.075,torte-q,2020.1.3,Win32,60,0.561185,,,,,,,,,,,,,,0,28,28,63,1,,,,,,,,,,,,,,,,,,,,,,,,,,
,,,,,,,,,,,,l,Incorrect,,,,,,t3.png,t4.png,1,0.90855,19,female,2020-10-13_20h20.57.075,torte-q,2020.1.3,Win32,60,0.87891,,,,,,,,,,,,,,0,29,29,96,1,,,,,,,,,,,,,,,,,,,,,,,,,,
,,,,,,,,,,,,l,Incorrect,,,,,,t2.png,t2.png,0,0.98115,19,female,2020-10-13_20h20.57.075,torte-q,2020.1.3,Win32,60,0.446435,,,,,,,,,,,,,,0,30,30,59,1,,,,,,,,,,,,,,,,,,,,,,,,,,
,,,,,,,,,,,,a,Incorrect,,,,,,t5.png,t3.png,2,0.056466,19,female,2020-10-13_20h20.57.075,torte-q,2020.1.3,Win32,60,0.522445,,,,,,,,,,,,,,0,31,31,108,1,,,,,,,,,,,,,,,,,,,,,,,,,,
,,,,,,,,,,,,a,Correct!,,,,,,t5.png,t4.png,1,0.90025,19,female,2020-10-13_20h20.57.075,torte-q,2020.1.3,Win32,60,1.19538,,,,,,,,,,,,,,0,32,32,27,1,,,,,,,,,,,,,,,,,,,,,,,,,,
,,,,,,,,,,,,a,Incorrect,,,,,,t4.png,t2.png,2,0.059078,19,female,2020-10-13_20h20.57.075,torte-q,2020.1.3,Win32,60,1.83802,,,,,,,,,,,,,,0,33,33,109,1,,,,,,,,,,,,,,,,,,,,,,,,,,
,,,,,,,,,,,,,Too slow :(,,,,,,t3.png,t2.png,1,0.909,19,female,2020-10-13_20h20.57.075,torte-q,2020.1.3,Win32,60,,,,,,,,,,,,,,,0,34,34,23,1,,,,,,,,,,,,,,,,,,,,,,,,,,
,,,,,,,,,,,,l,Correct!,,,,,,t1.png,t4.png,3,0.0000131,19,female,2020-10-13_20h20.57.075,torte-q,2020.1.3,Win32,60,0.52024,,,,,,,,,,,,,,0,35,35,17,1,,,,,,,,,,,,,,,,,,,,,,,,,,
,,,,,,,,,,,,l,Incorrect,,,,,,t5.png,t5.png,0,0.97829,19,female,2020-10-13_20h20.57.075,torte-q,2020.1.3,Win32,60,1.16262,,,,,,,,,,,,,,0,36,36,25,1,,,,,,,,,,,,,,,,,,,,,,,,,,
,,,,,,,,,,,,a,Incorrect,,,,,,t5.png,t1.png,4,9.55E-11,19,female,2020-10-13_20h20.57.075,torte-q,2020.1.3,Win32,60,0.443605,,,,,,,,,,,,,,0,37,37,22,1,,,,,,,,,,,,,,,,,,,,,,,,,,
,,,,,,,,,,,,a,Correct!,,,,,,t2.png,t1.png,1,0.90025,19,female,2020-10-13_20h20.57.075,torte-q,2020.1.3,Win32,60,0.62354,,,,,,,,,,,,,,0,38,38,19,1,,,,,,,,,,,,,,,,,,,,,,,,,,
,,,,,,,,,,,,a,Correct!,,,,,,t2.png,t1.png,1,0.90025,19,female,2020-10-13_20h20.57.075,torte-q,2020.1.3,Win32,60,0.863595,,,,,,,,,,,,,,0,39,39,4,1,,,,,,,,,,,,,,,,,,,,,,,,,,
,,,,,,,,,,,,l,Incorrect,,,,,,t2.png,t3.png,1,0.90855,19,female,2020-10-13_20h20.57.075,torte-q,2020.1.3,Win32,60,0.787625,,,,,,,,,,,,,,0,40,40,68,1,,,,,,,,,,,,,,,,,,,,,,,,,,
,,,,,,,,,,,,l,Correct!,,,,,,t1.png,t5.png,4,9.55E-11,19,female,2020-10-13_20h20.57.075,torte-q,2020.1.3,Win32,60,0.39614,,,,,,,,,,,,,,0,41,41,85,1,,,,,,,,,,,,,,,,,,,,,,,,,,
,,,,,,,,,,,,l,Incorrect,,,,,,t3.png,t4.png,1,0.909,19,female,2020-10-13_20h20.57.075,torte-q,2020.1.3,Win32,60,0.912865,,,,,,,,,,,,,,0,42,42,89,1,,,,,,,,,,,,,,,,,,,,,,,,,,
,,,,,,,,,,,,l,Incorrect,,,,,,t1.png,t2.png,1,0.90025,19,female,2020-10-13_20h20.57.075,torte-q,2020.1.3,Win32,60,2.369985,,,,,,,,,,,,,,0,43,43,72,1,,,,,,,,,,,,,,,,,,,,,,,,,,
,,,,,,,,,,,,l,Correct!,,,,,,t1.png,t4.png,3,0.0000131,19,female,2020-10-13_20h20.57.075,torte-q,2020.1.3,Win32,60,0.529925,,,,,,,,,,,,,,0,44,44,50,1,,,,,,,,,,,,,,,,,,,,,,,,,,
,,,,,,,,,,,,l,Correct!,,,,,,t1.png,t5.png,4,9.55E-11,19,female,2020-10-13_20h20.57.075,torte-q,2020.1.3,Win32,60,2.13065,,,,,,,,,,,,,,0,45,45,55,1,,,,,,,,,,,,,,,,,,,,,,,,,,
,,,,,,,,,,,,a,Incorrect,,,,,,t5.png,t3.png,2,0.056466,19,female,2020-10-13_20h20.57.075,torte-q,2020.1.3,Win32,60,0.44344,,,,,,,,,,,,,,0,46,46,56,1,,,,,,,,,,,,,,,,,,,,,,,,,,
,,,,,,,,,,,,a,Incorrect,,,,,,t4.png,t2.png,2,0.059078,19,female,2020-10-13_20h20.57.075,torte-q,2020.1.3,Win32,60,0.54545,,,,,,,,,,,,,,0,47,47,88,1,,,,,,,,,,,,,,,,,,,,,,,,,,
,,,,,,,,,,,,a,Incorrect,,,,,,t4.png,t1.png,3,0.0000131,19,female,2020-10-13_20h20.57.075,torte-q,2020.1.3,Win32,60,0.579085,,,,,,,,,,,,,,0,48,48,48,1,,,,,,,,,,,,,,,,,,,,,,,,,,
,,,,,,,,,,,,a,Correct!,,,,,,t4.png,t3.png,1,0.909,19,female,2020-10-13_20h20.57.075,torte-q,2020.1.3,Win32,60,1.40187,,,,,,,,,,,,,,0,49,49,46,1,,,,,,,,,,,,,,,,,,,,,,,,,,
,,,,,,,,,,,,a,Incorrect,,,,,,t5.png,t2.png,3,0.0000131,19,female,2020-10-13_20h20.57.075,torte-q,2020.1.3,Win32,60,0.51748,,,,,,,,,,,,,,0,50,50,91,1,,,,,,,,,,,,,,,,,,,,,,,,,,
,,,,,,,,,,,,a,Correct!,,,,,,t4.png,t4.png,0,0.98115,19,female,2020-10-13_20h20.57.075,torte-q,2020.1.3,Win32,60,0.929745,,,,,,,,,,,,,,0,51,51,79,1,,,,,,,,,,,,,,,,,,,,,,,,,,
,,,,,,,,,,,,l,Correct!,,,,,,t2.png,t5.png,3,0.0000131,19,female,2020-10-13_20h20.57.075,torte-q,2020.1.3,Win32,60,0.77682,,,,,,,,,,,,,,0,52,52,104,1,,,,,,,,,,,,,,,,,,,,,,,,,,
,,,,,,,,,,,,a,Correct!,,,,,,t3.png,t2.png,1,0.90855,19,female,2020-10-13_20h20.57.075,torte-q,2020.1.3,Win32,60,0.747035,,,,,,,,,,,,,,0,53,53,97,1,,,,,,,,,,,,,,,,,,,,,,,,,,
,,,,,,,,,,,,l,Incorrect,,,,,,t1.png,t2.png,1,0.90025,19,female,2020-10-13_20h20.57.075,torte-q,2020.1.3,Win32,60,0.617185,,,,,,,,,,,,,,0,54,54,33,1,,,,,,,,,,,,,,,,,,,,,,,,,,
,,,,,,,,,,,,l,Incorrect,,,,,,t1.png,t2.png,1,0.90025,19,female,2020-10-13_20h20.57.075,torte-q,2020.1.3,Win32,60,0.643465,,,,,,,,,,,,,,0,55,55,112,1,,,,,,,,,,,,,,,,,,,,,,,,,,
,,,,,,,,,,,,l,Correct!,,,,,,t2.png,t4.png,2,0.0591,19,female,2020-10-13_20h20.57.075,torte-q,2020.1.3,Win32,60,0.73964,,,,,,,,,,,,,,0,56,56,15,1,,,,,,,,,,,,,,,,,,,,,,,,,,
,,,,,,,,,,,,l,Correct!,,,,,,t1.png,t3.png,2,0.056466,19,female,2020-10-13_20h20.57.075,torte-q,2020.1.3,Win32,60,0.734555,,,,,,,,,,,,,,0,57,57,87,1,,,,,,,,,,,,,,,,,,,,,,,,,,
,,,,,,,,,,,,a,Incorrect,,,,,,t5.png,t2.png,3,0.0000131,19,female,2020-10-13_20h20.57.075,torte-q,2020.1.3,Win32,60,0.583205,,,,,,,,,,,,,,0,58,58,119,1,,,,,,,,,,,,,,,,,,,,,,,,,,
,,,,,,,,,,,,a,Incorrect,,,,,,t5.png,t1.png,4,9.55E-11,19,female,2020-10-13_20h20.57.075,torte-q,2020.1.3,Win32,60,0.881785,,,,,,,,,,,,,,0,59,59,102,1,,,,,,,,,,,,,,,,,,,,,,,,,,
,,,,,,,,,,,,l,Correct!,,,,,,t2.png,t5.png,3,0.0000131,19,female,2020-10-13_20h20.57.075,torte-q,2020.1.3,Win32,60,0.66314,,,,,,,,,,,,,,0,60,60,8,1,,,,,,,,,,,,,,,,,,,,,,,,,,
,,,,,,,,,,,,a,Incorrect,,,,,,t4.png,t2.png,2,0.059078,19,female,2020-10-13_20h20.57.075,torte-q,2020.1.3,Win32,60,0.983865,,,,,,,,,,,,,,0,61,61,86,1,,,,,,,,,,,,,,,,,,,,,,,,,,
,,,,,,,,,,,,l,Correct!,,,,,,t4.png,t5.png,1,0.90025,19,female,2020-10-13_20h20.57.075,torte-q,2020.1.3,Win32,60,0.70104,,,,,,,,,,,,,,0,62,62,103,1,,,,,,,,,,,,,,,,,,,,,,,,,,
,,,,,,,,,,,,a,Incorrect,,,,,,t3.png,t1.png,2,0.0565,19,female,2020-10-13_20h20.57.075,torte-q,2020.1.3,Win32,60,0.630735,,,,,,,,,,,,,,0,63,63,31,1,,,,,,,,,,,,,,,,,,,,,,,,,,
,,,,,,,,,,,,l,Correct!,,,,,,t3.png,t5.png,2,0.056466,19,female,2020-10-13_20h20.57.075,torte-q,2020.1.3,Win32,60,0.514595,,,,,,,,,,,,,,0,64,64,6,1,,,,,,,,,,,,,,,,,,,,,,,,,,
,,,,,,,,,,,,l,Incorrect,,,,,,t4.png,t5.png,1,0.90025,19,female,2020-10-13_20h20.57.075,torte-q,2020.1.3,Win32,60,1.150295,,,,,,,,,,,,,,0,65,65,113,1,,,,,,,,,,,,,,,,,,,,,,,,,,
,,,,,,,,,,,,a,Incorrect,,,,,,t5.png,t1.png,4,9.55E-11,19,female,2020-10-13_20h20.57.075,torte-q,2020.1.3,Win32,60,0.5464,,,,,,,,,,,,,,0,66,66,43,1,,,,,,,,,,,,,,,,,,,,,,,,,,
,,,,,,,,,,,,a,Correct!,,,,,,t2.png,t1.png,1,0.9,19,female,2020-10-13_20h20.57.075,torte-q,2020.1.3,Win32,60,0.938345,,,,,,,,,,,,,,0,67,67,118,1,,,,,,,,,,,,,,,,,,,,,,,,,,
,,,,,,,,,,,,l,Incorrect,,,,,,t4.png,t4.png,0,0.98115,19,female,2020-10-13_20h20.57.075,torte-q,2020.1.3,Win32,60,1.596785,,,,,,,,,,,,,,0,68,68,80,1,,,,,,,,,,,,,,,,,,,,,,,,,,
,,,,,,,,,,,,a,Incorrect,,,,,,t4.png,t3.png,1,0.909,19,female,2020-10-13_20h20.57.075,torte-q,2020.1.3,Win32,60,1.619995,,,,,,,,,,,,,,0,69,69,20,1,,,,,,,,,,,,,,,,,,,,,,,,,,
,,,,,,,,,,,,l,Incorrect,,,,,,t2.png,t2.png,0,0.981,19,female,2020-10-13_20h20.57.075,torte-q,2020.1.3,Win32,60,1.329955,,,,,,,,,,,,,,0,70,70,101,1,,,,,,,,,,,,,,,,,,,,,,,,,,
,,,,,,,,,,,,l,Correct!,,,,,,t3.png,t5.png,2,0.056466,19,female,2020-10-13_20h20.57.075,torte-q,2020.1.3,Win32,60,0.629265,,,,,,,,,,,,,,0,71,71,44,1,,,,,,,,,,,,,,,,,,,,,,,,,,
,,,,,,,,,,,,l,Correct!,,,,,,t1.png,t4.png,3,0.0000131,19,female,2020-10-13_20h20.57.075,torte-q,2020.1.3,Win32,60,0.619335,,,,,,,,,,,,,,0,72,72,107,1,,,,,,,,,,,,,,,,,,,,,,,,,,
,,,,,,,,,,,,a,Incorrect,,,,,,t5.png,t2.png,3,0.0000131,19,female,2020-10-13_20h20.57.075,torte-q,2020.1.3,Win32,60,1.001005,,,,,,,,,,,,,,0,73,73,98,1,,,,,,,,,,,,,,,,,,,,,,,,,,
,,,,,,,,,,,,l,Correct!,,,,,,t2.png,t5.png,3,0.0000131,19,female,2020-10-13_20h20.57.075,torte-q,2020.1.3,Win32,60,0.450835,,,,,,,,,,,,,,0,74,74,40,1,,,,,,,,,,,,,,,,,,,,,,,,,,
,,,,,,,,,,,,l,Incorrect,,,,,,t5.png,t5.png,0,0.978,19,female,2020-10-13_20h20.57.075,torte-q,2020.1.3,Win32,60,0.98462,,,,,,,,,,,,,,0,75,75,117,1,,,,,,,,,,,,,,,,,,,,,,,,,,
,,,,,,,,,,,,l,Incorrect,,,,,,t3.png,t4.png,1,0.90855,19,female,2020-10-13_20h20.57.075,torte-q,2020.1.3,Win32,60,1.81253,,,,,,,,,,,,,,0,76,76,84,1,,,,,,,,,,,,,,,,,,,,,,,,,,
,,,,,,,,,,,,l,Incorrect,,,,,,t2.png,t2.png,0,0.98115,19,female,2020-10-13_20h20.57.075,torte-q,2020.1.3,Win32,60,0.817305,,,,,,,,,,,,,,0,77,77,57,1,,,,,,,,,,,,,,,,,,,,,,,,,,
,,,,,,,,,,,,l,Incorrect,,,,,,t4.png,t5.png,1,0.9,19,female,2020-10-13_20h20.57.075,torte-q,2020.1.3,Win32,60,1.20946,,,,,,,,,,,,,,0,78,78,115,1,,,,,,,,,,,,,,,,,,,,,,,,,,
,,,,,,,,,,,,a,Incorrect,,,,,,t5.png,t1.png,4,9.55E-11,19,female,2020-10-13_20h20.57.075,torte-q,2020.1.3,Win32,60,0.85516,,,,,,,,,,,,,,0,79,79,71,1,,,,,,,,,,,,,,,,,,,,,,,,,,
,,,,,,,,,,,,l,Incorrect,,,,,,t1.png,t2.png,1,0.90025,19,female,2020-10-13_20h20.57.075,torte-q,2020.1.3,Win32,60,0.79511,,,,,,,,,,,,,,0,80,80,105,1,,,,,,,,,,,,,,,,,,,,,,,,,,
,,,,,,,,,,,,l,Correct!,,,,,,t1.png,t3.png,2,0.056466,19,female,2020-10-13_20h20.57.075,torte-q,2020.1.3,Win32,60,0.564735,,,,,,,,,,,,,,0,81,81,99,1,,,,,,,,,,,,,,,,,,,,,,,,,,
,,,,,,,,,,,,a,Incorrect,,,,,,t4.png,t1.png,3,0.0000131,19,female,2020-10-13_20h20.57.075,torte-q,2020.1.3,Win32,60,0.783945,,,,,,,,,,,,,,0,82,82,42,1,,,,,,,,,,,,,,,,,,,,,,,,,,
,,,,,,,,,,,,a,Correct!,,,,,,t3.png,t2.png,1,0.90855,19,female,2020-10-13_20h20.57.075,torte-q,2020.1.3,Win32,60,0.88975,,,,,,,,,,,,,,0,83,83,18,1,,,,,,,,,,,,,,,,,,,,,,,,,,
,,,,,,,,,,,,l,Incorrect,,,,,,t1.png,t1.png,0,0.97829,19,female,2020-10-13_20h20.57.075,torte-q,2020.1.3,Win32,60,0.586,,,,,,,,,,,,,,0,84,84,9,1,,,,,,,,,,,,,,,,,,,,,,,,,,
,,,,,,,,,,,,a,Incorrect,,,,,,t5.png,t2.png,3,0.0000131,19,female,2020-10-13_20h20.57.075,torte-q,2020.1.3,Win32,60,1.169435,,,,,,,,,,,,,,0,85,85,51,1,,,,,,,,,,,,,,,,,,,,,,,,,,
,,,,,,,,,,,,l,Correct!,,,,,,t1.png,t4.png,3,0.0000131,19,female,2020-10-13_20h20.57.075,torte-q,2020.1.3,Win32,60,0.528375,,,,,,,,,,,,,,0,86,86,92,1,,,,,,,,,,,,,,,,,,,,,,,,,,
,,,,,,,,,,,,l,Incorrect,,,,,,t5.png,t5.png,0,0.97829,19,female,2020-10-13_20h20.57.075,torte-q,2020.1.3,Win32,60,1.162315,,,,,,,,,,,,,,0,87,87,94,1,,,,,,,,,,,,,,,,,,,,,,,,,,
,,,,,,,,,,,,a,Correct!,,,,,,t5.png,t4.png,1,0.9,19,female,2020-10-13_20h20.57.075,torte-q,2020.1.3,Win32,60,1.153945,,,,,,,,,,,,,,0,88,88,49,1,,,,,,,,,,,,,,,,,,,,,,,,,,
,,,,,,,,,,,,l,Incorrect,,,,,,t1.png,t1.png,0,0.97829,19,female,2020-10-13_20h20.57.075,torte-q,2020.1.3,Win32,60,0.67284,,,,,,,,,,,,,,0,89,89,67,1,,,,,,,,,,,,,,,,,,,,,,,,,,
,,,,,,,,,,,,l,Correct!,,,,,,t3.png,t5.png,2,0.0565,19,female,2020-10-13_20h20.57.075,torte-q,2020.1.3,Win32,60,0.601,,,,,,,,,,,,,,0,90,90,30,1,,,,,,,,,,,,,,,,,,,,,,,,,,
,,,,,,,,,,,,l,Correct!,,,,,,t1.png,t5.png,4,9.55E-11,19,female,2020-10-13_20h20.57.075,torte-q,2020.1.3,Win32,60,0.929775,,,,,,,,,,,,,,0,91,91,12,1,,,,,,,,,,,,,,,,,,,,,,,,,,
,,,,,,,,,,,,l,Correct!,,,,,,t3.png,t5.png,2,0.0565,19,female,2020-10-13_20h20.57.075,torte-q,2020.1.3,Win32,60,0.628565,,,,,,,,,,,,,,0,92,92,83,1,,,,,,,,,,,,,,,,,,,,,,,,,,
,,,,,,,,,,,,a,Correct!,,,,,,t4.png,t3.png,1,0.90855,19,female,2020-10-13_20h20.57.075,torte-q,2020.1.3,Win32,60,0.72954,,,,,,,,,,,,,,0,93,93,45,1,,,,,,,,,,,,,,,,,,,,,,,,,,
,,,,,,,,,,,,a,Incorrect,,,,,,t3.png,t1.png,2,0.056466,19,female,2020-10-13_20h20.57.075,torte-q,2020.1.3,Win32,60,0.4692,,,,,,,,,,,,,,0,94,94,0,1,,,,,,,,,,,,,,,,,,,,,,,,,,
,,,,,,,,,,,,l,Incorrect,,,,,,t1.png,t3.png,2,0.056466,19,female,2020-10-13_20h20.57.075,torte-q,2020.1.3,Win32,60,0.601215,,,,,,,,,,,,,,0,95,95,69,1,,,,,,,,,,,,,,,,,,,,,,,,,,
,,,,,,,,,,,,l,Incorrect,,,,,,t1.png,t1.png,0,0.978,19,female,2020-10-13_20h20.57.075,torte-q,2020.1.3,Win32,60,0.41237,,,,,,,,,,,,,,0,96,96,28,1,,,,,,,,,,,,,,,,,,,,,,,,,,
,,,,,,,,,,,,a,Incorrect,,,,,,t3.png,t2.png,1,0.909,19,female,2020-10-13_20h20.57.075,torte-q,2020.1.3,Win32,60,0.69577,,,,,,,,,,,,,,0,97,97,3,1,,,,,,,,,,,,,,,,,,,,,,,,,,
,,,,,,,,,,,,l,Correct!,,,,,,t1.png,t4.png,3,0.0000131,19,female,2020-10-13_20h20.57.075,torte-q,2020.1.3,Win32,60,0.43472,,,,,,,,,,,,,,0,98,98,81,1,,,,,,,,,,,,,,,,,,,,,,,,,,
,,,,,,,,,,,,l,Correct!,,,,,,t2.png,t5.png,3,0.0000131,19,female,2020-10-13_20h20.57.075,torte-q,2020.1.3,Win32,60,0.855215,,,,,,,,,,,,,,0,99,99,66,1,,,,,,,,,,,,,,,,,,,,,,,,,,
,,,,,,,,,,,,l,Incorrect,,,,,,t3.png,t4.png,1,0.909,19,female,2020-10-13_20h20.57.075,torte-q,2020.1.3,Win32,60,0.73454,,,,,,,,,,,,,,0,100,100,106,1,,,,,,,,,,,,,,,,,,,,,,,,,,
,,,,,,,,,,,,l,Correct!,,,,,,t1.png,t5.png,4,9.55E-11,19,female,2020-10-13_20h20.57.075,torte-q,2020.1.3,Win32,60,0.66339,,,,,,,,,,,,,,0,101,101,16,1,,,,,,,,,,,,,,,,,,,,,,,,,,
,,,,,,,,,,,,a,Incorrect,,,,,,t5.png,t3.png,2,0.0565,19,female,2020-10-13_20h20.57.075,torte-q,2020.1.3,Win32,60,0.66804,,,,,,,,,,,,,,0,102,102,39,1,,,,,,,,,,,,,,,,,,,,,,,,,,
,,,,,,,,,,,,l,Incorrect,,,,,,t4.png,t4.png,0,0.98115,19,female,2020-10-13_20h20.57.075,torte-q,2020.1.3,Win32,60,0.684495,,,,,,,,,,,,,,0,103,103,90,1,,,,,,,,,,,,,,,,,,,,,,,,,,
,,,,,,,,,,,,l,Incorrect,,,,,,t2.png,t3.png,1,0.90855,19,female,2020-10-13_20h20.57.075,torte-q,2020.1.3,Win32,60,0.484625,,,,,,,,,,,,,,0,104,104,111,1,,,,,,,,,,,,,,,,,,,,,,,,,,
,,,,,,,,,,,,a,Incorrect,,,,,,t3.png,t1.png,2,0.056466,19,female,2020-10-13_20h20.57.075,torte-q,2020.1.3,Win32,60,0.534225,,,,,,,,,,,,,,0,105,105,29,1,,,,,,,,,,,,,,,,,,,,,,,,,,
,,,,,,,,,,,,l,Incorrect,,,,,,t4.png,t5.png,1,0.90025,19,female,2020-10-13_20h20.57.075,torte-q,2020.1.3,Win32,60,0.767715,,,,,,,,,,,,,,0,106,106,58,1,,,,,,,,,,,,,,,,,,,,,,,,,,
,,,,,,,,,,,,a,Incorrect,,,,,,t5.png,t1.png,4,9.55E-11,19,female,2020-10-13_20h20.57.075,torte-q,2020.1.3,Win32,60,0.628285,,,,,,,,,,,,,,0,107,107,100,1,,,,,,,,,,,,,,,,,,,,,,,,,,
,,,,,,,,,,,,a,Correct!,,,,,,t5.png,t3.png,2,0.056466,19,female,2020-10-13_20h20.57.075,torte-q,2020.1.3,Win32,60,0.751145,,,,,,,,,,,,,,0,108,108,38,1,,,,,,,,,,,,,,,,,,,,,,,,,,
,,,,,,,,,,,,a,Incorrect,,,,,,t4.png,t2.png,2,0.0591,19,female,2020-10-13_20h20.57.075,torte-q,2020.1.3,Win32,60,0.94038,,,,,,,,,,,,,,0,109,109,36,1,,,,,,,,,,,,,,,,,,,,,,,,,,
,,,,,,,,,,,,l,Incorrect,,,,,,t2.png,t3.png,1,0.909,19,female,2020-10-13_20h20.57.075,torte-q,2020.1.3,Win32,60,0.949365,,,,,,,,,,,,,,0,110,110,74,1,,,,,,,,,,,,,,,,,,,,,,,,,,
,,,,,,,,,,,,a,Incorrect,,,,,,t3.png,t1.png,2,0.056466,19,female,2020-10-13_20h20.57.075,torte-q,2020.1.3,Win32,60,0.97622,,,,,,,,,,,,,,0,111,111,32,1,,,,,,,,,,,,,,,,,,,,,,,,,,
,,,,,,,,,,,,a,Incorrect,,,,,,t5.png,t2.png,3,0.0000131,19,female,2020-10-13_20h20.57.075,torte-q,2020.1.3,Win32,60,0.639815,,,,,,,,,,,,,,0,112,112,116,1,,,,,,,,,,,,,,,,,,,,,,,,,,
,,,,,,,,,,,,l,Correct!,,,,,,t1.png,t3.png,2,0.056466,19,female,2020-10-13_20h20.57.075,torte-q,2020.1.3,Win32,60,0.573495,,,,,,,,,,,,,,0,113,113,60,1,,,,,,,,,,,,,,,,,,,,,,,,,,
,,,,,,,,,,,,l,Incorrect,,,,,,t1.png,t1.png,0,0.978,19,female,2020-10-13_20h20.57.075,torte-q,2020.1.3,Win32,60,1.30139,,,,,,,,,,,,,,0,114,114,54,1,,,,,,,,,,,,,,,,,,,,,,,,,,
,,,,,,,,,,,,a,Correct!,,,,,,t5.png,t4.png,1,0.90025,19,female,2020-10-13_20h20.57.075,torte-q,2020.1.3,Win32,60,1.18023,,,,,,,,,,,,,,0,115,115,26,1,,,,,,,,,,,,,,,,,,,,,,,,,,
,,,,,,,,,,,,l,Correct!,,,,,,t1.png,t5.png,4,9.55E-11,19,female,2020-10-13_20h20.57.075,torte-q,2020.1.3,Win32,60,0.44184,,,,,,,,,,,,,,0,116,116,41,1,,,,,,,,,,,,,,,,,,,,,,,,,,
,,,,,,,,,,,,a,Correct!,,,,,,t5.png,t5.png,0,0.97829,19,female,2020-10-13_20h20.57.075,torte-q,2020.1.3,Win32,60,0.78961,,,,,,,,,,,,,,0,117,117,70,1,,,,,,,,,,,,,,,,,,,,,,,,,,
,,,,,,,,,,,,l,Incorrect,,,,,,t2.png,t3.png,1,0.90855,19,female,2020-10-13_20h20.57.075,torte-q,2020.1.3,Win32,60,0.762485,,,,,,,,,,,,,,0,118,118,10,1,,,,,,,,,,,,,,,,,,,,,,,,,,
,,,,,,,,,,,,l,Correct!,,,,,,t3.png,t5.png,2,0.056466,19,female,2020-10-13_20h20.57.075,torte-q,2020.1.3,Win32,60,0.85037,,,,,,,,,,,,,,0,119,119,14,1,,,,,,,,,,,,,,,,,,,,,,,,,,
,,,,,,,,,,,,,,,,,,,,,,,19,female,2020-10-13_20h20.57.075,torte-q,2020.1.3,Win32,60,,space,1.307585,,,,,,,,,,,,,,,,,3.960000153,4.5231,-57.33331597,64.33330582,1,0,0,s3,24.00001979,-18.33334297,1,0,0,t3,196.0000249,-96.33334529,1,0,0,proceed,space,3.25177,space,0.05529,space,0.783925
